Lable,AccX1,AccY1,AccZ1,GyrX1,GyrY1,GyrZ1,AccX2,AccY2,AccZ2,GyrX2,GyrY2,GyrZ2,AccX3,AccY3,AccZ3,GyrX3,GyrY3,GyrZ3,AccX4,AccY4,AccZ4,GyrX4,GyrY4,GyrZ4,AccX5,AccY5,AccZ5,GyrX5,GyrY5,GyrZ5,AccX6,AccY6,AccZ6,GyrX6,GyrY6,GyrZ6,AccX7,AccY7,AccZ7,GyrX7,GyrY7,GyrZ7,AccX8,AccY8,AccZ8,GyrX8,GyrY8,GyrZ8,AccX9,AccY9,AccZ9,GyrX9,GyrY9,GyrZ9,AccX10,AccY10,AccZ10,GyrX10,GyrY10,GyrZ10,AccX11,AccY11,AccZ11,GyrX11,GyrY11,GyrZ11,AccX12,AccY12,AccZ12,GyrX12,GyrY12,GyrZ12,AccX13,AccY13,AccZ13,GyrX13,GyrY13,GyrZ13,AccX14,AccY14,AccZ14,GyrX14,GyrY14,GyrZ14,AccX15,AccY15,AccZ15,GyrX15,GyrY15,GyrZ15,AccX16,AccY16,AccZ16,GyrX16,GyrY16,GyrZ16,AccX17,AccY17,AccZ17,GyrX17,GyrY17,GyrZ17,AccX18,AccY18,AccZ18,GyrX18,GyrY18,GyrZ18,AccX19,AccY19,AccZ19,GyrX19,GyrY19,GyrZ19,AccX20,AccY20,AccZ20,GyrX20,GyrY20,GyrZ20,AccX21,AccY21,AccZ21,GyrX21,GyrY21,GyrZ21,AccX22,AccY22,AccZ22,GyrX22,GyrY22,GyrZ22,AccX23,AccY23,AccZ23,GyrX23,GyrY23,GyrZ23,AccX24,AccY24,AccZ24,GyrX24,GyrY24,GyrZ24,AccX25,AccY25,AccZ25,GyrX25,GyrY25,GyrZ25,AccX26,AccY26,AccZ26,GyrX26,GyrY26,GyrZ26,AccX27,AccY27,AccZ27,GyrX27,GyrY27,GyrZ27,AccX28,AccY28,AccZ28,GyrX28,GyrY28,GyrZ28,AccX29,AccY29,AccZ29,GyrX29,GyrY29,GyrZ29,AccX30,AccY30,AccZ30,GyrX30,GyrY30,GyrZ30

tiltr,8,122,-233,-84,-4,-27,7,122,-234,-67,-9,-23,4,126,-235,-92,8,-25,4,126,-230,-68,5,-26,3,130,-230,-63,1,-26,4,131,-229,-47,2,-26,3,132,-229,-47,-1,-19,2,132,-228,-28,0,-14,2,133,-227,-22,-6,-12,2,134,-228,-20,-10,-7,2,135,-228,-7,-17,0,1,134,-228,15,-18,6,1,133,-228,7,-15,4,1,132,-228,26,-19,1,0,132,-230,5,-18,-3,0,133,-229,21,-10,-7,0,132,-229,19,-12,-7,0,131,-230,17,-13,-9,0,131,-230,12,-6,-7,0,131,-231,15,-5,-10,-1,132,-230,12,0,-8,0,131,-230,11,-4,-8,-1,132,-230,17,0,-6,-1,131,-230,22,0,-4,-1,130,-231,18,0,-3,0,130,-230,19,3,-3,-1,130,-231,20,1,-1,-1,129,-231,20,1,-3,0,129,-231,18,4,-4,0,129,-231,17,3,-6
tiltr,0,129,-231,19,3,-3,-1,129,-231,14,4,-6,0,129,-232,17,5,-4,0,128,-232,14,5,-5,0,128,-232,16,8,-6,0,129,-232,23,10,-7,0,133,-230,221,-23,-16,-2,123,-232,576,-57,7,-4,113,-227,1226,-93,21,-5,69,-227,1491,-102,29,-7,40,-217,1242,-109,32,-11,13,-218,835,-62,43,-13,3,-215,389,-17,24,-15,-16,-223,-110,43,14,-15,-4,-222,-665,141,-4,-9,27,-213,-673,129,-14,-10,33,-215,-390,127,24,-9,38,-216,-422,120,-6,-5,50,-216,-421,114,-16,-4,62,-214,-344,93,-8,-4,67,-217,-247,82,-2,-2,73,-218,-268,80,-13,-1,78,-219,-255,78,-12,-1,86,-218,-186,63,-5,0,88,-219,-189,57,-9,0,92,-220,-175,50,-10,0,97,-221,-150,47,-7,1,101,-221,-140,43,-11,1,103,-222,-129,41,-8,1,107,-222,-118,39,-9
tiltr,1,109,-223,-107,39,-10,2,111,-223,-102,37,-11,2,114,-223,-95,35,-8,2,117,-224,-77,35,-9,2,118,-223,-74,29,-9,3,119,-224,-54,22,-9,2,123,-223,16,10,-8,2,124,-222,463,-58,-11,1,121,-217,1193,-105,-21,-2,74,-211,1791,-143,39,-6,24,-213,1277,-122,14,-8,10,-210,608,-52,11,-10,1,-209,373,-34,-11,-13,-12,-217,-438,103,4,-6,18,-205,-890,165,-39,-6,39,-207,-242,115,9,-3,36,-212,-342,113,-19,-2,47,-211,-417,121,-15,1,56,-211,-383,106,-29,2,68,-210,-239,86,-13,3,70,-213,-296,82,-27,4,77,-214,-228,75,-18,5,84,-214,-207,68,-21,6,87,-216,-184,58,-18,6,91,-217,-181,55,-21,7,95,-218,-144,48,-16,8,99,-219,-149,47,-16,8,103,-219,-118,39,-15,8,105,-220,-123,40,-14,9,107,-221,-103,37,-16
tiltr,9,110,-221,-95,36,-15,9,113,-221,-87,32,-18,10,115,-222,-73,29,-14,10,117,-222,-64,27,-12,10,118,-223,-54,24,-13,10,120,-223,-54,22,-15,11,121,-224,-36,20,-13,12,131,-216,370,-64,-35,11,118,-217,1048,-145,-25,1,77,-209,1930,-198,-4,1,27,-214,1263,-150,-29,0,19,-208,715,-94,-6,-3,2,-211,298,-41,-5,-6,-5,-215,-303,50,-6,-1,7,-213,-773,129,-53,3,38,-207,-458,83,-38,2,37,-212,-424,81,-17,2,47,-210,-404,81,-25,4,58,-211,-387,70,-40,6,67,-211,-294,60,-29,5,72,-212,-253,52,-23,6,80,-213,-229,46,-29,7,84,-214,-231,50,-27,7,89,-215,-186,44,-23,8,95,-216,-174,37,-24,9,98,-217,-162,37,-23,9,101,-218,-142,33,-23,9,106,-218,-126,33,-19,10,107,-219,-121,31,-20,10,111,-220,-100,28,-20
tiltr,10,113,-220,-107,27,-21,11,115,-221,-87,26,-20,10,118,-221,-76,25,-17,11,120,-222,-73,20,-18,11,122,-222,-65,20,-14,11,124,-222,-40,13,-14,13,133,-217,313,-66,-34,10,115,-220,943,-135,-11,3,82,-218,1515,-164,6,0,44,-216,1393,-156,-2,-1,24,-214,856,-107,5,-4,4,-216,428,-55,4,-7,-8,-222,61,1,8,-7,-4,-221,-678,134,-4,-1,29,-212,-609,109,-26,0,33,-217,-400,121,1,1,40,-215,-378,106,-4,3,49,-215,-393,91,-19,4,60,-215,-354,75,-18,4,65,-218,-278,77,-12,5,74,-217,-248,65,-20,7,78,-219,-264,63,-19,7,84,-220,-212,57,-10,8,89,-219,-190,56,-12,9,94,-219,-176,48,-16,10,98,-220,-157,45,-14,10,101,-221,-142,45,-15,10,105,-221,-122,42,-15,11,108,-221,-108,38,-13,11,111,-221,-106,33,-16
tiltr,12,113,-222,-101,29,-17,12,116,-222,-74,29,-15,12,118,-222,-71,28,-13,13,120,-223,-65,24,-13,13,121,-223,-54,23,-14,13,123,-224,-35,20,-12,14,127,-221,157,-26,-26,12,122,-219,757,-102,-5,6,102,-213,1698,-195,-18,4,42,-213,1588,-166,-10,0,20,-210,854,-95,-7,-1,12,-208,385,-51,-19,-4,-1,-216,-24,28,-12,-2,0,-216,-844,172,-25,1,42,-204,-559,124,-42,6,36,-212,-406,136,-10,8,49,-206,-395,110,-23,8,54,-211,-443,107,-33,9,70,-210,-298,85,-28,12,72,-212,-302,83,-25,13,80,-212,-257,70,-27,13,85,-214,-249,67,-26,14,89,-214,-199,61,-20,15,94,-215,-186,56,-21,16,97,-216,-174,50,-21,16,102,-217,-136,45,-17,17,104,-218,-133,43,-18,18,107,-218,-108,36,-19,18,111,-218,-101,34,-15,18,112,-220,-79,29,-16
tiltr,19,115,-220,-82,27,-17,19,116,-221,-72,24,-16,19,118,-221,-67,23,-14,19,120,-222,-57,21,-14,20,122,-222,-55,17,-16,20,123,-222,-51,15,-13,20,126,-221,0,3,-6,22,135,-215,662,-118,-29,14,113,-216,1458,-187,12,10,52,-225,1360,-139,21,8,40,-220,786,-85,25,6,22,-223,456,-52,24,1,9,-226,-254,50,15,5,24,-221,-739,137,-30,8,51,-212,-320,107,6,9,49,-220,-267,87,2,10,57,-217,-264,78,-9,11,66,-218,-317,73,-24,11,72,-220,-199,62,-9,12,77,-221,-198,59,-18,13,81,-222,-188,59,-19,14,86,-222,-167,54,-20,14,91,-222,-138,45,-16,14,94,-223,-133,46,-21,15,98,-223,-111,41,-17,15,101,-223,-102,36,-18,15,104,-224,-92,36,-15,15,106,-224,-85,36,-16,16,108,-225,-76,33,-14,16,110,-225,-74,30,-17
tiltr,16,112,-226,-66,29,-16,16,114,-226,-56,27,-15,17,116,-226,-54,23,-16,17,117,-227,-58,26,-12,17,118,-227,-46,26,-15,17,120,-227,-28,23,-10,21,127,-220,170,-34,-28,16,112,-224,909,-116,-5,10,79,-218,1704,-166,-19,8,32,-219,1315,-134,-16,6,21,-215,761,-86,8,3,7,-214,480,-54,-3,0,-9,-220,81,8,-3,1,-5,-221,-526,120,-17,6,18,-216,-596,124,-32,6,27,-219,-362,105,-14,8,35,-217,-344,93,-17,9,42,-220,-392,89,-29,10,50,-221,-342,85,-21,11,59,-221,-249,69,-22,13,64,-222,-266,64,-25,13,69,-223,-239,63,-21,14,76,-224,-207,58,-23,14,79,-224,-187,54,-20,16,83,-225,-189,49,-21,15,87,-226,-164,47,-20,16,92,-226,-137,44,-19,17,94,-226,-149,43,-20,17,97,-227,-110,36,-18,18,100,-227,-114,35,-19
tiltr,18,103,-227,-97,31,-16,19,105,-228,-94,28,-15,19,107,-228,-80,27,-16,19,109,-228,-79,25,-14,19,110,-229,-62,22,-15,19,113,-229,-45,20,-13,21,117,-228,134,-25,-24,18,113,-224,837,-129,-6,11,82,-218,1789,-180,29,10,30,-215,1575,-144,13,7,16,-209,852,-83,28,3,-8,-211,364,-39,20,1,-13,-212,-98,35,-2,3,-7,-215,-649,151,-29,9,17,-205,-627,142,-7,8,26,-212,-298,105,14,11,30,-212,-343,93,-20,13,39,-214,-408,94,-21,15,52,-212,-288,68,-14,16,54,-217,-236,54,-3,16,59,-219,-225,56,-15,16,66,-219,-217,53,-14,18,70,-221,-169,40,-9,18,72,-224,-174,42,-13,18,78,-224,-137,36,-13,18,79,-226,-146,36,-14,19,84,-226,-115,34,-13,19,87,-228,-116,31,-14,19,89,-229,-105,29,-15,19,92,-230,-86,27,-14
tiltr,20,94,-230,-87,26,-13,20,96,-231,-83,26,-11,20,98,-232,-69,25,-12,20,99,-232,-55,22,-11,20,100,-233,-67,22,-12,21,102,-234,-44,18,-14,21,112,-228,383,-64,-22,20,98,-228,1091,-171,-24,12,52,-222,1755,-181,3,9,9,-217,1387,-138,-10,8,0,-207,1004,-123,7,3,-30,-209,400,-39,3,0,-38,-208,116,-10,-5,0,-40,-213,-550,113,-28,4,-14,-209,-754,149,-52,6,1,-212,-532,127,-32,8,11,-211,-483,109,-45,10,23,-212,-430,98,-44,11,33,-214,-434,96,-44,12,41,-215,-343,82,-39,14,49,-216,-320,75,-37,14,55,-218,-297,74,-32,15,61,-219,-265,68,-34,15,66,-219,-227,61,-31,16,73,-220,-209,55,-29,17,77,-222,-200,50,-27,18,81,-223,-161,48,-29,18,85,-223,-157,43,-30,19,89,-224,-142,38,-27,19,92,-225,-126,33,-26
tiltr,20,95,-226,-113,31,-25,20,98,-226,-91,29,-21,20,100,-227,-88,28,-24,20,102,-228,-80,27,-22,21,105,-228,-50,20,-20,22,106,-227,-30,13,-19,21,111,-224,325,-51,-28,17,95,-227,699,-89,-14,16,90,-219,1568,-205,-25,11,31,-211,1816,-204,-7,6,-2,-211,1020,-129,10,4,-10,-202,664,-88,-1,1,-29,-206,271,-27,-18,0,-33,-207,-179,51,-20,2,-24,-209,-569,116,-35,6,-2,-208,-620,115,-39,10,12,-207,-557,106,-36,9,18,-212,-466,98,-29,11,31,-211,-426,90,-39,13,39,-214,-400,86,-34,14,46,-215,-340,74,-27,14,53,-216,-294,68,-28,15,59,-217,-295,67,-29,16,65,-219,-247,60,-25,16,69,-220,-231,55,-23,18,75,-221,-218,49,-27,18,78,-223,-203,47,-19,19,83,-223,-164,41,-22,19,86,-225,-162,41,-19,20,89,-226,-144,39,-22
tiltr,21,92,-226,-132,35,-20,20,94,-227,-118,33,-17,21,97,-228,-106,31,-17,21,100,-228,-96,32,-16,22,102,-228,-100,28,-20,22,103,-229,-69,25,-14,24,114,-222,338,-57,-33,20,92,-228,874,-115,-8,15,67,-219,1587,-169,-22,13,23,-214,1563,-136,-8,9,-3,-208,1138,-108,3,6,-16,-197,995,-100,-6,4,-42,-199,553,-43,-19,2,-53,-201,-29,29,-15,1,-54,-204,-618,129,-20,6,-27,-202,-795,160,-57,8,-10,-201,-582,129,-15,11,-2,-205,-499,110,-28,12,9,-208,-469,102,-40,15,19,-210,-427,95,-31,16,29,-211,-362,81,-27,17,36,-214,-344,76,-28,19,43,-215,-307,74,-25,18,48,-219,-264,65,-19,20,54,-219,-229,52,-26,20,57,-221,-226,52,-26,21,62,-223,-201,48,-23,21,68,-224,-178,43,-22,23,72,-226,-164,37,-22,23,74,-227,-150,37,-20
tiltr,23,78,-229,-137,34,-19,23,81,-229,-126,32,-20,24,83,-230,-118,31,-19,24,86,-231,-98,27,-19,24,88,-232,-90,25,-17,24,90,-233,-79,22,-16,25,93,-232,-7,10,-13,25,98,-224,621,-111,-18,20,81,-228,1197,-167,-10,15,31,-218,1752,-164,2,13,-3,-210,1372,-150,9,11,-16,-203,867,-106,2,8,-37,-201,591,-81,-12,4,-53,-203,-43,17,-15,4,-51,-210,-774,160,-12,11,-17,-200,-892,153,-39,13,2,-201,-404,107,-7,14,2,-206,-460,103,-17,17,16,-207,-449,90,-29,18,27,-209,-415,70,-23,19,36,-211,-260,51,-17,20,39,-215,-326,61,-16,21,48,-216,-241,51,-12,22,52,-218,-261,49,-14,22,56,-220,-215,44,-14,23,62,-222,-203,42,-19,24,67,-223,-184,39,-16,24,71,-224,-164,38,-16,25,75,-225,-150,34,-15,26,78,-227,-141,30,-19
tiltr,26,80,-228,-131,32,-19,26,85,-228,-109,29,-16,26,88,-229,-99,26,-18,27,89,-230,-98,25,-16,27,91,-231,-85,23,-14,27,94,-231,-63,21,-14,28,99,-227,175,-17,-28,27,88,-230,520,-78,-5,24,83,-221,1243,-198,-24,16,35,-209,1991,-223,-21,14,-6,-210,1343,-155,-14,12,-20,-199,871,-124,-10,9,-35,-194,541,-76,-26,5,-51,-200,91,15,-14,5,-54,-206,-619,133,-3,10,-28,-198,-857,154,-33,12,-3,-197,-629,113,-30,13,2,-200,-446,99,-9,15,12,-206,-455,90,-32,18,23,-205,-464,78,-31,18,35,-208,-328,66,-25,20,41,-209,-342,66,-27,21,48,-212,-303,59,-29,22,56,-214,-272,54,-22,23,61,-215,-233,43,-26,22,66,-216,-239,45,-26,23,72,-218,-189,36,-24,24,76,-219,-195,36,-25,24,80,-220,-166,31,-22,24,84,-222,-152,31,-25
tiltr,25,88,-222,-138,28,-21,26,91,-223,-126,26,-21,26,94,-224,-118,26,-20,26,96,-225,-102,26,-16,26,99,-226,-84,24,-17,27,101,-226,-42,12,-16,28,115,-217,609,-116,-40,24,89,-220,1219,-175,-13,16,44,-209,1913,-215,14,14,2,-206,1320,-153,8,11,-12,-197,909,-121,1,7,-32,-196,513,-75,-14,4,-44,-200,9,7,-19,5,-42,-204,-689,149,-29,10,-20,-199,-879,165,-64,11,3,-202,-515,158,-25,16,9,-200,-472,139,-26,17,17,-203,-464,112,-39,18,30,-204,-433,92,-51,20,39,-208,-325,85,-32,22,45,-209,-317,77,-32,23,52,-212,-289,63,-37,24,59,-213,-246,61,-32,25,63,-215,-229,58,-30,26,69,-217,-205,52,-31,27,73,-218,-188,46,-28,28,79,-219,-161,41,-26,28,82,-220,-154,42,-25,29,85,-222,-134,37,-24,29,89,-223,-114,35,-21
tiltr,30,91,-224,-104,29,-23,30,94,-224,-83,26,-24,31,96,-226,-80,24,-22,31,98,-227,-49,17,-19,31,100,-227,-54,13,-21,32,103,-227,43,-16,-27,30,109,-220,650,-113,-23,27,89,-223,1332,-182,0,20,41,-202,2036,-208,41,17,-2,-200,1470,-146,35,14,-14,-186,1192,-133,30,12,-37,-181,924,-108,16,7,-61,-179,415,-46,10,5,-71,-184,-409,73,9,4,-59,-190,-960,181,-41,11,-21,-180,-673,125,-55,11,-18,-192,-546,165,-28,14,-5,-192,-540,143,-35,16,6,-195,-530,118,-50,18,19,-198,-413,97,-37,18,27,-202,-397,100,-37,21,36,-205,-331,90,-33,22,41,-207,-337,87,-33,23,49,-209,-267,73,-29,24,55,-211,-263,74,-29,25,61,-213,-232,66,-27,26,66,-215,-215,61,-28,26,71,-217,-188,55,-26,27,74,-219,-174,54,-26,28,78,-220,-160,50,-25
tiltr,28,82,-221,-142,45,-24,29,85,-222,-120,39,-23,29,89,-223,-109,35,-21,29,91,-225,-91,32,-16,30,92,-226,-70,25,-18,30,96,-226,29,7,-15,31,100,-222,420,-81,-22,25,81,-220,1125,-179,2,16,44,-215,1680,-217,-7,15,4,-200,1678,-221,0,13,-14,-192,1246,-176,12,10,-41,-188,845,-133,5,5,-58,-183,364,-68,-11,3,-66,-189,-235,35,-20,5,-57,-196,-810,161,-44,11,-30,-187,-879,159,-48,10,-10,-194,-508,105,-30,13,-6,-197,-541,111,-32,15,8,-200,-520,110,-41,18,23,-199,-469,93,-41,19,31,-203,-357,73,-29,20,38,-206,-344,74,-30,22,44,-209,-336,75,-25,23,51,-210,-277,68,-23,24,58,-212,-251,59,-25,25,61,-215,-239,57,-23,26,68,-216,-207,54,-23,27,72,-217,-193,50,-20,27,75,-220,-191,47,-23,28,79,-220,-154,43,-18
tiltr,29,84,-221,-143,37,-22,29,87,-223,-130,35,-18,30,89,-224,-110,33,-20,30,91,-225,-112,31,-22,31,95,-225,-77,24,-15,31,96,-227,-75,19,-16,31,100,-225,29,-4,-9,32,106,-222,727,-138,-14,24,77,-220,1530,-206,12,21,34,-211,1792,-203,12,16,-1,-206,1233,-141,21,15,-18,-196,918,-117,12,10,-37,-195,462,-54,-3,7,-53,-201,-291,79,0,9,-41,-199,-945,214,-50,16,2,-193,-602,134,-53,19,-3,-196,-503,132,-35,18,9,-201,-492,120,-46,20,21,-203,-479,108,-50,22,34,-204,-379,90,-41,23,38,-207,-328,76,-39,24,46,-209,-306,70,-35,24,49,-213,-307,75,-33,26,59,-214,-243,65,-30,26,62,-215,-221,60,-32,27,67,-217,-200,57,-31,28,72,-219,-186,54,-30,28,76,-220,-167,49,-28,29,80,-221,-155,47,-27,30,83,-223,-140,40,-31
tiltr,30,87,-224,-122,39,-27,30,90,-224,-112,36,-23,30,92,-225,-111,33,-26,31,94,-227,-86,29,-19,32,97,-226,-66,24,-22,32,98,-227,-39,17,-14,33,105,-223,317,-63,-26,30,87,-225,910,-151,-1,22,57,-214,1802,-207,5,20,7,-204,1727,-192,-3,16,-11,-197,1212,-143,16,14,-35,-191,826,-103,1,10,-56,-190,358,-46,-13,9,-62,-194,-410,82,-27,11,-48,-194,-949,187,-67,17,-14,-189,-660,116,-55,18,-9,-196,-519,115,-46,19,2,-200,-527,110,-59,22,16,-201,-503,107,-64,23,27,-203,-390,87,-49,24,36,-205,-329,74,-49,25,42,-208,-338,76,-49,26,48,-210,-282,66,-40,26,55,-211,-256,56,-37,27,61,-213,-242,50,-39,28,66,-214,-216,47,-34,28,71,-216,-199,42,-34,29,76,-217,-175,39,-34,30,80,-219,-156,35,-32,30,84,-220,-148,33,-32
tiltr,30,86,-221,-130,33,-26,30,90,-222,-121,34,-29,31,92,-223,-114,30,-24,31,94,-224,-105,27,-25,31,98,-226,-88,27,-20,32,99,-226,-77,25,-20,32,103,-224,10,5,-18,31,108,-220,664,-123,-17,21,81,-215,1739,-220,28,18,16,-204,2006,-196,30,13,-2,-197,1222,-109,49,12,-20,-186,1032,-108,39,9,-41,-180,886,-89,16,4,-65,-184,270,-2,-4,3,-69,-189,-455,127,-21,7,-57,-187,-974,242,-84,11,-17,-184,-547,164,-77,16,-16,-188,-478,168,-46,16,-4,-194,-481,138,-58,19,8,-195,-499,126,-72,20,19,-200,-380,110,-54,23,27,-201,-328,95,-50,24,35,-204,-325,83,-49,25,43,-206,-271,73,-49,26,49,-209,-238,68,-44,27,54,-211,-218,62,-41,28,58,-214,-206,57,-38,29,65,-216,-166,50,-34,29,69,-217,-174,45,-37,30,71,-220,-152,44,-32
tiltr,30,75,-221,-135,42,-32,31,80,-222,-120,39,-31,32,83,-224,-114,34,-30,32,84,-226,-103,35,-29,32,88,-226,-84,32,-25,33,91,-227,-55,21,-24,34,96,-223,152,-25,-24,30,87,-219,868,-145,3,24,61,-212,1672,-191,41,18,5,-206,1729,-174,32,16,-13,-198,1167,-123,31,13,-34,-189,834,-101,18,9,-54,-188,399,-49,-2,7,-63,-192,-282,67,-21,10,-51,-197,-855,184,-53,14,-20,-193,-648,128,-60,16,-10,-194,-498,130,-42,18,0,-199,-485,116,-43,20,10,-203,-466,103,-53,21,22,-204,-377,88,-41,23,29,-208,-345,79,-40,23,36,-210,-277,68,-33,25,43,-212,-264,59,-36,26,47,-214,-254,56,-33,26,54,-217,-197,48,-27,27,59,-219,-203,46,-30,28,63,-221,-186,44,-28,28,67,-222,-154,41,-24,28,70,-224,-149,39,-25,29,74,-225,-130,37,-23
tiltr,29,76,-226,-120,32,-23,30,79,-228,-111,30,-27,30,81,-229,-101,29,-20,31,84,-230,-86,26,-22,31,87,-231,-76,26,-21,31,88,-232,-61,21,-18,32,94,-227,125,-27,-19,30,86,-224,656,-116,7,24,69,-220,1600,-210,24,19,12,-211,1791,-179,34,15,-12,-201,1206,-136,43,12,-25,-193,859,-102,25,9,-51,-193,646,-78,18,5,-68,-194,-198,46,-1,5,-66,-195,-1156,219,-23,13,-11,-190,-788,119,-82,13,-10,-193,-486,140,-36,15,0,-198,-533,125,-42,16,11,-200,-557,119,-49,18,26,-201,-457,100,-41,18,33,-204,-356,95,-27,20,40,-207,-356,79,-33,20,45,-210,-320,79,-28,22,55,-211,-250,66,-24,22,58,-214,-275,65,-28,23,64,-215,-228,59,-25,24,69,-217,-206,50,-21,24,73,-219,-188,46,-21,25,77,-221,-167,41,-22,25,81,-222,-157,38,-22
tiltr,25,84,-223,-134,36,-19,26,87,-224,-121,34,-21,26,89,-226,-105,32,-16,26,93,-225,-105,28,-17,26,94,-227,-80,27,-15,27,96,-228,-37,15,-10,29,106,-222,265,-58,-22,26,88,-221,894,-154,4,15,59,-210,2010,-210,43,11,-12,-205,1708,-181,14,10,-15,-192,942,-115,29,8,-33,-188,600,-84,3,3,-51,-190,220,-25,-8,1,-64,-197,-530,107,-17,6,-37,-193,-1010,209,-76,9,-7,-191,-585,136,-54,12,-2,-197,-448,119,-31,12,4,-200,-460,109,-44,15,19,-202,-479,99,-59,16,30,-204,-351,79,-39,17,35,-208,-328,73,-37,18,43,-209,-302,68,-40,20,52,-211,-268,63,-37,21,58,-213,-246,59,-36,22,62,-215,-224,56,-31,22,68,-216,-199,51,-34,23,73,-217,-179,45,-30,24,75,-219,-166,40,-30,24,80,-221,-120,34,-29,26,83,-222,-133,32,-29
tiltr,25,85,-223,-112,32,-25,26,88,-225,-101,28,-24,27,91,-226,-89,25,-21,27,93,-227,-62,19,-17,27,95,-228,-21,12,-14,27,97,-227,56,-3,-13,26,99,-222,562,-93,-14,24,82,-224,1091,-186,-10,17,47,-214,1699,-206,12,13,2,-210,1464,-169,11,10,-15,-202,1012,-131,12,7,-33,-198,650,-91,-10,4,-50,-198,304,-38,-25,2,-59,-205,-385,91,-26,6,-40,-200,-799,165,-61,10,-10,-198,-576,110,-57,12,-7,-205,-446,100,-35,12,3,-206,-435,93,-39,16,15,-209,-449,87,-52,18,24,-211,-341,68,-40,18,32,-213,-321,64,-37,19,38,-215,-291,59,-35,21,47,-216,-280,57,-34,22,51,-219,-220,46,-32,23,58,-220,-193,40,-31,23,62,-222,-198,38,-30,24,66,-224,-162,35,-31,24,71,-225,-152,32,-31,25,73,-226,-138,30,-27,25,77,-228,-131,26,-29
tiltr,26,80,-229,-117,27,-27,26,83,-230,-106,23,-25,26,85,-231,-89,25,-20,26,88,-231,-69,21,-19,27,90,-232,-10,7,-18,26,91,-232,92,-14,-6,26,95,-226,508,-97,-3,23,81,-221,1370,-195,16,18,30,-218,1752,-172,26,13,-1,-206,1358,-155,35,12,-19,-197,1000,-126,20,8,-45,-196,571,-81,-1,5,-60,-199,-143,20,-23,6,-57,-201,-923,194,-48,18,-9,-190,-638,94,-47,13,-15,-203,-366,100,-30,15,-2,-204,-431,78,-43,17,3,-209,-516,94,-41,20,21,-208,-346,65,-33,20,25,-213,-328,64,-30,21,31,-215,-317,54,-35,22,37,-217,-285,54,-26,23,44,-219,-254,48,-27,24,49,-221,-231,44,-31,25,54,-223,-183,38,-29,26,59,-225,-185,36,-28,26,62,-226,-170,32,-27,27,66,-228,-136,30,-23,27,70,-229,-135,30,-26,28,72,-230,-116,24,-23
tiltr,28,74,-232,-105,23,-21,28,77,-232,-91,18,-20,29,79,-233,-73,16,-19,29,80,-234,-19,6,-12,30,84,-232,125,-36,-14,28,84,-230,635,-129,0,22,64,-226,1434,-196,44,15,16,-209,1951,-218,46,13,-19,-202,1342,-143,39,11,-34,-188,1019,-126,34,7,-55,-184,614,-84,4,3,-71,-188,31,3,-4,4,-71,-194,-653,125,-13,9,-41,-186,-909,149,-72,5,-24,-193,-488,117,-54,11,-12,-194,-479,110,-53,12,-5,-200,-468,108,-45,14,8,-201,-463,89,-54,13,15,-206,-348,81,-36,15,24,-208,-316,68,-42,17,30,-212,-322,69,-39,18,34,-215,-265,58,-35,17,42,-217,-244,53,-32,18,46,-220,-231,52,-30,20,51,-222,-204,48,-31,19,56,-223,-186,44,-30,20,59,-225,-174,39,-28,21,65,-227,-147,36,-27,22,67,-228,-153,37,-30,22,70,-230,-129,31,-29
tiltr,22,74,-231,-112,29,-25,22,76,-232,-106,29,-24,23,78,-233,-100,27,-24,23,81,-233,-75,24,-20,23,83,-234,-63,21,-21,23,85,-234,-8,9,-13,24,91,-230,439,-82,-7,20,73,-230,1016,-155,7,16,47,-217,1776,-185,14,11,-8,-206,1783,-175,17,8,-22,-193,1213,-113,38,6,-45,-183,925,-103,19,2,-69,-180,395,-41,-12,0,-80,-186,-433,92,-16,2,-64,-186,-990,218,-70,12,-29,-177,-704,123,-64,9,-24,-192,-470,109,-45,10,-13,-195,-510,108,-50,13,0,-199,-531,111,-58,16,10,-199,-426,88,-55,16,17,-205,-373,83,-42,16,26,-207,-355,75,-44,18,33,-209,-318,66,-44,19,39,-213,-290,60,-40,19,45,-215,-257,56,-35,20,51,-217,-236,50,-36,21,56,-219,-213,47,-31,22,60,-222,-197,44,-32,22,64,-223,-175,42,-27,22,66,-225,-169,43,-29
tiltr,23,71,-226,-141,38,-25,23,74,-227,-128,32,-24,23,76,-229,-117,34,-23,23,79,-230,-64,25,-20,24,82,-230,18,2,-20,24,79,-230,343,-47,-13,23,75,-224,1071,-167,-19,14,37,-209,1925,-180,23,10,-18,-201,1716,-160,14,9,-31,-186,1199,-115,34,7,-50,-176,913,-104,6,3,-72,-173,516,-46,-2,0,-85,-175,-161,35,-5,-1,-86,-184,-921,169,-33,9,-42,-174,-944,143,-90,4,-32,-189,-399,125,-23,10,-24,-189,-551,115,-41,10,-14,-195,-561,122,-49,13,1,-197,-483,104,-46,13,9,-203,-398,95,-35,15,15,-206,-390,91,-35,17,23,-209,-368,80,-33,17,29,-212,-317,71,-30,18,36,-215,-286,66,-27,19,41,-218,-265,63,-29,20,46,-220,-243,57,-29,21,51,-222,-214,51,-26,21,56,-224,-188,49,-25,22,59,-225,-175,45,-23,22,63,-228,-171,39,-27
tiltr,23,66,-229,-143,38,-22,23,70,-230,-136,37,-21,23,72,-231,-121,35,-21,24,75,-233,-104,30,-21,24,78,-233,-78,26,-15,25,78,-234,5,1,-11,25,81,-231,175,-44,-20,21,74,-228,840,-127,10,14,52,-223,1656,-159,25,13,0,-212,1762,-132,28,8,-21,-197,1290,-99,48,7,-41,-184,1094,-94,27,4,-65,-181,643,-43,-2,1,-85,-184,-234,74,-3,0,-83,-185,-1230,254,-37,17,-21,-173,-496,90,-63,12,-43,-197,-469,175,-33,14,-23,-194,-541,153,-77,18,-9,-197,-567,139,-68,21,3,-199,-399,110,-51,20,7,-206,-382,110,-52,22,17,-207,-368,99,-47,24,25,-210,-330,91,-42,25,31,-212,-293,79,-40,26,37,-216,-272,73,-38,27,42,-218,-250,69,-39,28,49,-220,-223,63,-35,28,53,-222,-200,59,-27,29,57,-223,-189,57,-32,29,61,-225,-168,51,-28
tiltr,30,65,-227,-155,43,-27,30,68,-228,-142,42,-27,31,72,-230,-129,39,-23,31,75,-231,-116,36,-20,31,78,-231,-100,32,-16,32,79,-233,-90,29,-17,32,83,-232,-1,2,-13,31,84,-226,823,-123,20,23,60,-213,1923,-205,62,20,-7,-201,1951,-167,51,15,-18,-191,1232,-98,63,14,-39,-178,988,-83,38,11,-60,-174,549,-34,24,8,-76,-177,-181,68,4,8,-73,-185,-989,239,-32,18,-27,-179,-711,157,-72,18,-22,-187,-371,150,-51,21,-13,-191,-430,122,-51,20,0,-197,-437,119,-57,23,10,-199,-344,94,-48,23,16,-205,-274,75,-42,24,21,-208,-283,71,-40,25,28,-211,-244,63,-42,26,32,-215,-241,60,-36,26,38,-218,-193,50,-32,27,43,-220,-185,48,-36,27,45,-223,-202,49,-35,28,50,-225,-165,47,-29,27,55,-226,-169,42,-31,28,58,-229,-151,42,-29
tiltr,28,61,-229,-139,42,-23,29,63,-231,-131,38,-24,29,67,-232,-114,35,-22,30,70,-233,-107,32,-23,30,73,-234,-104,33,-22,30,75,-235,-82,29,-21,31,86,-228,330,-49,-27,29,71,-225,1101,-136,-6,22,33,-216,1767,-138,50,18,-9,-207,1646,-123,43,16,-27,-195,1206,-77,56,14,-49,-181,1055,-61,32,9,-72,-175,637,-20,-1,7,-92,-181,-207,85,-38,6,-87,-186,-1046,268,-68,20,-33,-171,-742,169,-136,17,-40,-191,-341,186,-65,22,-28,-191,-474,151,-82,22,-17,-196,-532,148,-78,25,-1,-198,-400,125,-70,27,2,-205,-350,115,-55,28,9,-207,-342,107,-55,30,16,-211,-334,97,-58,31,23,-213,-277,88,-53,32,29,-216,-256,83,-49,33,34,-218,-241,77,-54,34,40,-220,-207,68,-47,35,43,-223,-197,61,-44,35,48,-225,-182,58,-42,37,52,-227,-161,54,-40
tiltr,37,56,-228,-150,50,-38,37,59,-230,-128,46,-33,39,62,-231,-89,38,-31,39,65,-231,-27,17,-30,38,66,-232,278,-30,-25,37,59,-230,659,-97,-7,31,46,-224,1218,-158,26,26,0,-214,1691,-179,53,22,-26,-199,1600,-165,55,18,-48,-181,1314,-133,57,16,-70,-168,1047,-114,37,12,-92,-167,505,-56,8,8,-108,-168,-311,50,-2,7,-102,-174,-1013,186,-34,19,-57,-167,-940,152,-66,16,-47,-178,-510,134,-36,18,-36,-184,-557,105,-39,19,-25,-189,-607,111,-43,22,-10,-192,-500,97,-38,23,-2,-197,-420,92,-29,24,5,-201,-405,83,-31,26,13,-205,-391,81,-33,27,20,-208,-340,73,-28,28,27,-211,-312,70,-27,29,34,-213,-282,63,-27,30,39,-216,-264,58,-28,31,45,-218,-238,54,-24,31,50,-220,-215,53,-23,32,54,-222,-193,48,-22,33,59,-223,-179,42,-22
tiltr,33,62,-225,-165,41,-21,33,64,-227,-145,36,-22,34,69,-228,-135,36,-20,34,71,-229,-132,34,-20,35,73,-230,-112,32,-16,35,77,-231,-77,27,-13,38,81,-225,135,-37,-19,34,75,-232,699,-135,5,25,49,-221,1735,-219,43,24,8,-207,1823,-179,47,17,-24,-200,1086,-101,59,16,-37,-189,821,-96,35,12,-60,-190,396,-45,15,9,-74,-197,-638,145,9,19,-41,-179,-1375,260,-85,8,-13,-193,-227,162,-49,20,-10,-193,-425,143,-53,20,0,-197,-484,150,-43,22,11,-198,-453,119,-62,23,21,-203,-282,91,-40,25,27,-207,-310,90,-39,26,32,-210,-307,87,-34,27,39,-213,-264,80,-35,28,45,-215,-232,72,-34,28,48,-218,-222,70,-31,29,55,-220,-192,64,-29,30,60,-221,-177,60,-29,31,62,-223,-169,53,-26,31,66,-225,-148,54,-24,31,70,-226,-127,46,-26
tiltr,32,73,-228,-122,42,-25,33,75,-229,-112,41,-21,33,78,-230,-93,39,-22,34,80,-231,-84,37,-21,34,82,-232,-81,33,-23,35,85,-232,-43,23,-16,37,92,-228,277,-50,-27,30,76,-227,906,-140,40,25,54,-225,1466,-165,73,21,7,-212,1683,-148,91,18,-16,-202,1249,-102,81,14,-41,-191,861,-82,57,11,-60,-189,346,-35,18,8,-71,-194,-455,99,-3,11,-63,-189,-1400,314,-105,11,-5,-183,-272,136,-61,17,-9,-193,-419,149,-48,18,-3,-195,-479,142,-67,18,9,-198,-481,130,-69,20,21,-202,-311,93,-45,21,25,-207,-297,86,-42,22,33,-209,-313,85,-47,24,38,-213,-256,74,-42,24,46,-215,-227,68,-37,24,49,-218,-229,67,-34,25,54,-220,-202,65,-34,26,58,-222,-186,62,-33,26,63,-223,-161,59,-29,26,67,-224,-146,51,-31,27,71,-226,-142,50,-28
tiltr,28,73,-227,-119,45,-28,28,77,-228,-110,43,-29,29,79,-230,-102,38,-26,29,81,-231,-98,36,-27,29,84,-231,-83,34,-23,29,86,-232,-78,32,-25,30,88,-233,-49,26,-19,31,98,-227,280,-43,-26,29,83,-229,850,-132,0,19,55,-218,1791,-167,37,18,7,-199,2008,-147,36,13,-19,-191,1236,-72,64,12,-36,-176,920,-68,37,10,-58,-173,694,-49,4,7,-75,-174,-28,61,-20,7,-71,-184,-640,162,-34,13,-48,-181,-811,204,-86,15,-25,-183,-617,169,-91,18,-16,-188,-498,149,-60,19,-8,-193,-503,130,-64,21,5,-197,-478,121,-72,22,15,-199,-383,102,-60,24,22,-203,-357,92,-53,25,27,-207,-356,88,-49,27,35,-210,-309,80,-46,28,42,-212,-265,72,-39,28,46,-215,-267,66,-41,29,51,-217,-243,62,-40,30,57,-219,-202,54,-33,30,62,-220,-189,52,-38
tiltr,31,64,-223,-184,49,-36,32,69,-224,-157,42,-32,32,72,-226,-140,41,-31,32,76,-226,-123,36,-32,33,79,-228,-113,32,-27,33,80,-230,-102,29,-24,33,84,-229,-65,23,-22,36,89,-227,146,-28,-21,33,81,-226,677,-108,17,29,66,-226,1344,-193,22,24,22,-211,1884,-176,47,19,-10,-198,1567,-135,49,16,-32,-181,1270,-112,52,14,-54,-170,887,-87,20,10,-79,-172,239,-6,-2,8,-84,-173,-655,130,-23,13,-63,-177,-1025,218,-81,14,-28,-177,-471,121,-67,19,-28,-185,-513,135,-54,18,-19,-191,-502,126,-56,21,-5,-194,-522,116,-70,22,3,-199,-398,99,-53,23,11,-202,-376,97,-55,25,19,-206,-311,81,-52,26,27,-208,-319,72,-50,27,31,-212,-280,69,-44,28,37,-215,-245,68,-42,29,42,-218,-225,62,-39,30,47,-219,-209,56,-38,31,50,-223,-194,52,-36
tiltr,31,54,-224,-170,53,-34,32,59,-225,-149,44,-33,33,62,-227,-141,40,-33,33,63,-229,-130,38,-28,34,67,-230,-91,31,-30,34,68,-232,-63,27,-28,36,71,-233,-26,29,-37,40,75,-232,67,33,-38,47,72,-232,136,50,-4,49,69,-240,58,53,10,52,67,-231,59,13,24,51,69,-235,42,-16,41,48,64,-238,16,-18,54,41,62,-243,-40,-10,64,37,63,-243,-16,-6,57,27,67,-249,45,-15,39,20,61,-247,23,-43,29,22,64,-246,70,-73,30,23,63,-248,32,-108,13,21,54,-251,69,-28,22,21,62,-252,27,-51,-13,18,53,-251,72,-60,16,19,55,-253,36,-49,7,18,52,-254,56,-45,9,16,52,-255,42,-52,8,15,49,-255,28,-40,20,14,51,-255,39,-30,19,14,51,-256,40,-36,12