Lable,AccX1,AccY1,AccZ1,GyrX1,GyrY1,GyrZ1,AccX2,AccY2,AccZ2,GyrX2,GyrY2,GyrZ2,AccX3,AccY3,AccZ3,GyrX3,GyrY3,GyrZ3,AccX4,AccY4,AccZ4,GyrX4,GyrY4,GyrZ4,AccX5,AccY5,AccZ5,GyrX5,GyrY5,GyrZ5,AccX6,AccY6,AccZ6,GyrX6,GyrY6,GyrZ6,AccX7,AccY7,AccZ7,GyrX7,GyrY7,GyrZ7,AccX8,AccY8,AccZ8,GyrX8,GyrY8,GyrZ8,AccX9,AccY9,AccZ9,GyrX9,GyrY9,GyrZ9,AccX10,AccY10,AccZ10,GyrX10,GyrY10,GyrZ10,AccX11,AccY11,AccZ11,GyrX11,GyrY11,GyrZ11,AccX12,AccY12,AccZ12,GyrX12,GyrY12,GyrZ12,AccX13,AccY13,AccZ13,GyrX13,GyrY13,GyrZ13,AccX14,AccY14,AccZ14,GyrX14,GyrY14,GyrZ14,AccX15,AccY15,AccZ15,GyrX15,GyrY15,GyrZ15,AccX16,AccY16,AccZ16,GyrX16,GyrY16,GyrZ16,AccX17,AccY17,AccZ17,GyrX17,GyrY17,GyrZ17,AccX18,AccY18,AccZ18,GyrX18,GyrY18,GyrZ18,AccX19,AccY19,AccZ19,GyrX19,GyrY19,GyrZ19,AccX20,AccY20,AccZ20,GyrX20,GyrY20,GyrZ20,AccX21,AccY21,AccZ21,GyrX21,GyrY21,GyrZ21,AccX22,AccY22,AccZ22,GyrX22,GyrY22,GyrZ22,AccX23,AccY23,AccZ23,GyrX23,GyrY23,GyrZ23,AccX24,AccY24,AccZ24,GyrX24,GyrY24,GyrZ24,AccX25,AccY25,AccZ25,GyrX25,GyrY25,GyrZ25,AccX26,AccY26,AccZ26,GyrX26,GyrY26,GyrZ26,AccX27,AccY27,AccZ27,GyrX27,GyrY27,GyrZ27,AccX28,AccY28,AccZ28,GyrX28,GyrY28,GyrZ28,AccX29,AccY29,AccZ29,GyrX29,GyrY29,GyrZ29,AccX30,AccY30,AccZ30,GyrX30,GyrY30,GyrZ30

tiltl,5,125,-232,-6,4,-15,5,126,-237,-4,21,-26,5,125,-234,-6,22,-18,4,125,-233,1,11,-26,4,127,-235,4,4,-19,6,126,-233,23,1,-17,4,126,-236,15,-4,-14,4,125,-233,14,1,-14,3,124,-235,14,2,-17,3,125,-235,14,1,-18,3,125,-235,15,2,-17,3,124,-234,36,-2,-16,2,124,-235,19,0,-13,2,124,-235,32,0,-12,2,124,-235,39,-2,-10,2,123,-235,31,2,-11,1,123,-235,29,0,-10,1,123,-235,31,0,-6,1,122,-236,32,0,-9,1,122,-236,28,2,-8,1,121,-236,31,4,-7,1,121,-237,24,1,-9,1,120,-237,26,3,-9,0,120,-237,25,4,-8,0,120,-238,23,5,-8,0,120,-238,23,4,-9,0,119,-237,23,6,-9,0,119,-237,30,3,-7,0,118,-238,47,-1,-2,0,117,-238,24,-1,-5
tiltl,0,117,-238,31,3,-7,0,116,-238,29,0,-6,0,116,-239,31,0,-6,0,116,-239,29,1,-7,0,115,-239,28,2,-8,0,115,-239,33,3,-7,0,115,-240,22,3,-10,0,114,-240,-11,8,-16,-2,107,-245,-586,102,-72,-1,130,-224,-855,158,-161,-4,145,-209,-830,146,-200,-2,159,-195,-464,88,-94,-2,159,-190,-296,18,-40,-6,168,-188,181,-43,-26,-6,158,-189,734,-76,3,-6,136,-199,741,-54,12,-6,120,-209,479,-45,1,-7,117,-210,435,-43,1,-7,109,-214,452,-40,3,-7,102,-218,395,-36,5,-8,94,-222,343,-29,3,-9,91,-224,282,-25,-1,-9,85,-227,301,-21,0,-9,80,-231,251,-18,-2,-10,78,-233,235,-15,-1,-10,72,-235,198,-12,-2,-11,71,-236,211,-11,0,-11,66,-238,173,-7,-4,-11,64,-241,167,-6,-3,-12,61,-242,151,-4,-4
tiltl,-12,58,-244,132,-3,-8,-12,57,-245,128,0,-6,-12,54,-247,111,0,-7,-13,54,-248,96,3,-10,-12,52,-248,78,8,-12,-13,50,-251,-92,29,-16,-13,52,-252,-346,73,-20,-9,60,-244,-914,155,-50,-7,81,-232,-971,205,-145,-9,103,-218,-723,195,-130,-6,113,-207,-533,122,-74,-4,128,-193,54,-20,-33,-5,126,-196,758,-83,-33,-9,88,-216,744,-16,13,-9,76,-221,240,3,-6,-8,84,-217,258,-9,-7,-10,77,-221,338,-8,-12,-10,66,-227,179,16,-13,-10,66,-229,134,11,-8,-10,70,-229,160,0,-16,-10,63,-233,131,9,-17,-11,62,-235,126,7,-12,-11,62,-237,87,4,-13,-11,59,-238,112,8,-11,-11,58,-240,74,5,-11,-12,58,-242,88,4,-9,-11,56,-243,66,5,-12,-12,56,-244,68,6,-13,-12,55,-245,46,7,-10,-12,55,-247,59,6,-10
tiltl,-12,53,-247,49,9,-12,-12,53,-248,33,7,-13,-12,52,-249,36,9,-12,-12,52,-250,14,13,-11,-12,53,-250,-249,53,-34,-14,54,-254,-468,123,-32,-11,69,-242,-836,186,-53,-6,95,-223,-814,182,-114,-6,104,-215,-655,171,-104,-6,121,-205,-391,79,-28,-5,127,-201,63,-26,-14,-5,125,-205,474,-52,-1,-6,108,-217,319,-17,0,-6,104,-219,290,-21,5,-7,99,-222,271,-20,3,-12,92,-229,258,-32,10,-8,88,-229,203,-9,0,-8,86,-231,187,-10,0,-8,81,-233,149,-8,1,-8,82,-235,150,-13,-7,-8,79,-238,137,-7,-4,-8,77,-238,117,-3,-3,-8,76,-240,119,-5,-3,-8,74,-242,104,-1,-4,-8,72,-242,97,0,-6,-7,71,-244,91,-2,-4,-8,70,-245,89,2,-5,-8,69,-246,77,0,-5,-7,67,-247,78,2,-6,-7,66,-248,68,2,-7
tiltl,-8,65,-248,64,4,-8,-8,65,-249,61,3,-9,-8,64,-250,56,4,-9,-8,64,-250,42,6,-9,-8,62,-252,0,17,-6,-8,62,-253,-280,63,-16,-6,68,-248,-655,125,-24,-5,80,-240,-920,180,-30,-3,101,-224,-673,156,-107,-3,117,-214,-661,130,-94,-2,129,-204,-400,60,-17,-2,135,-201,100,-35,-9,-2,128,-205,603,-60,-8,-3,108,-218,464,-34,-10,-3,95,-223,242,-27,-2,-3,100,-222,194,-28,-13,-4,94,-226,241,-19,-12,-4,90,-230,215,-16,-14,-4,86,-232,159,-9,-14,-5,85,-233,150,-9,-16,-6,83,-235,150,-8,-12,-6,80,-237,136,-5,-13,-6,78,-239,111,-2,-15,-7,77,-240,112,0,-14,-7,75,-241,98,0,-13,-8,74,-242,92,2,-12,-7,72,-243,85,2,-12,-7,71,-244,80,2,-14,-7,70,-245,64,1,-12,-7,69,-246,67,3,-12
tiltl,-7,69,-247,61,5,-14,-7,68,-247,57,5,-12,-7,67,-248,49,5,-13,-7,67,-248,40,8,-14,-7,66,-249,20,10,-13,-8,66,-250,-42,19,-15,-9,61,-253,-404,80,-14,-4,76,-242,-788,130,-62,0,93,-227,-977,186,-133,-4,109,-214,-841,172,-174,-3,124,-203,-673,123,-121,-1,138,-190,-343,21,-25,-5,144,-192,210,-42,-28,-6,133,-197,651,-60,-2,-6,111,-211,464,-30,0,-7,108,-211,268,-25,-4,-7,108,-213,351,-34,-11,-7,102,-218,317,-24,-6,-8,94,-223,262,-13,-2,-9,93,-224,246,-17,-7,-9,88,-227,214,-13,-8,-9,87,-229,199,-13,-8,-9,83,-231,191,-11,-8,-9,81,-233,179,-7,-8,-10,78,-235,102,2,-13,-10,76,-237,138,1,-10,-10,75,-238,121,-1,-14,-10,73,-241,101,3,-16,-10,72,-241,86,5,-13,-11,71,-242,89,3,-12
tiltl,-11,70,-243,79,5,-14,-11,68,-245,55,8,-15,-11,67,-246,-66,29,-20,-11,76,-245,-88,31,-30,-12,69,-247,-392,91,-16,-11,77,-242,-960,205,-26,-7,111,-220,-836,162,-150,-9,121,-207,-782,176,-161,-8,134,-195,-625,127,-85,-8,140,-186,-400,57,-33,-8,154,-183,179,-31,-45,-7,146,-186,691,-63,-23,-9,124,-199,690,-48,0,-9,112,-207,347,-35,-6,-10,118,-207,326,-43,-19,-10,108,-213,321,-24,-13,-12,104,-216,302,-18,-11,-10,101,-219,237,-12,-22,-11,97,-222,196,-6,-19,-12,97,-224,221,-10,-18,-12,93,-227,179,-4,-17,-12,90,-230,160,-1,-19,-12,88,-232,146,1,-14,-12,87,-233,156,0,-14,-12,84,-235,123,4,-17,-12,83,-237,119,5,-16,-12,81,-238,104,5,-15,-12,80,-240,100,7,-16,-12,79,-241,91,6,-16,-12,78,-242,79,8,-16
tiltl,-12,77,-243,68,9,-17,-12,76,-244,63,9,-18,-12,76,-245,50,10,-17,-12,74,-247,-31,22,-19,-12,78,-246,-20,23,-20,-11,71,-249,-328,66,-30,-11,76,-249,-643,123,-22,-9,92,-233,-1040,199,-67,-9,116,-214,-826,174,-127,-8,129,-202,-741,146,-114,-7,139,-192,-434,72,-17,-9,147,-187,38,-25,-18,-10,142,-193,475,-37,-10,-10,126,-205,409,-17,-11,-9,118,-210,271,-10,-14,-10,119,-210,285,-15,-17,-10,113,-215,274,-5,-26,-10,109,-218,247,0,-23,-11,106,-221,208,1,-25,-11,102,-224,196,3,-25,-10,99,-226,182,5,-25,-11,98,-227,173,3,-24,-11,95,-230,154,0,-23,-12,92,-233,145,5,-21,-11,90,-234,129,3,-22,-11,88,-236,118,5,-20,-12,87,-237,110,4,-17,-12,85,-239,103,7,-17,-12,83,-240,83,10,-18,-12,81,-242,83,10,-17
tiltl,-12,82,-241,69,9,-18,-12,80,-243,68,8,-19,-12,79,-244,62,9,-16,-12,78,-245,45,11,-17,-12,77,-246,45,12,-17,-12,76,-247,-19,21,-16,-13,75,-249,-256,60,-21,-9,82,-242,-836,145,-32,-3,107,-219,-1111,154,-74,-9,115,-214,-712,152,-105,-7,131,-199,-706,134,-94,-6,144,-188,-600,99,-36,-4,155,-177,-176,-13,-16,-7,156,-183,294,-60,-3,-8,143,-191,470,-48,-2,-7,133,-197,491,-42,2,-8,126,-201,386,-37,7,-9,121,-207,279,-31,-2,-9,115,-211,310,-29,4,-9,115,-212,266,-27,-9,-10,107,-217,202,-13,-1,-10,109,-219,191,-19,-10,-10,103,-222,190,-13,-9,-10,102,-225,167,-15,-8,-10,98,-228,139,-7,-8,-10,97,-229,145,-2,-9,-11,96,-230,128,-4,-14,-10,94,-232,120,-1,-9,-11,92,-234,109,0,-13,-11,91,-235,106,0,-11
tiltl,-11,90,-236,101,0,-12,-11,89,-238,91,2,-14,-11,87,-239,80,2,-15,-11,86,-240,75,3,-14,-11,84,-241,75,4,-13,-11,84,-242,65,8,-15,-11,83,-242,55,7,-14,-12,82,-244,-15,16,-18,-11,81,-245,-361,65,-34,-11,82,-242,-869,179,-41,-6,114,-214,-877,147,-92,-7,121,-210,-672,128,-106,-8,137,-199,-612,79,-81,-5,140,-192,-369,22,-32,-7,153,-188,161,-60,-26,-9,139,-195,549,-76,-13,-10,126,-207,337,-33,-17,-9,124,-209,228,-16,-24,-9,121,-212,249,-20,-33,-10,116,-214,283,-13,-28,-10,112,-218,224,-4,-32,-10,111,-220,210,-4,-38,-10,106,-223,195,-2,-32,-11,103,-225,189,-2,-29,-11,101,-228,158,-1,-29,-11,98,-230,145,2,-26,-11,96,-232,135,1,-24,-11,93,-234,130,4,-22,-11,91,-236,103,4,-24,-11,90,-237,109,5,-21
tiltl,-11,88,-238,93,4,-20,-11,87,-239,88,6,-22,-11,87,-240,72,5,-21,-11,86,-242,74,5,-22,-11,85,-242,77,5,-18,-11,84,-243,67,8,-19,-12,83,-244,54,7,-20,-12,79,-246,-90,33,-13,-11,84,-246,-538,96,-42,-10,99,-233,-986,174,-19,-7,126,-212,-640,104,-62,-9,130,-208,-633,96,-74,-7,141,-200,-472,73,-16,-5,153,-189,-69,-31,-16,-8,153,-195,704,-102,-3,-10,121,-210,533,-48,-2,-10,117,-213,271,-29,-13,-9,119,-213,283,-31,-21,-10,112,-217,322,-21,-20,-11,105,-222,265,-12,-20,-10,104,-223,196,-10,-27,-11,100,-226,215,-9,-22,-11,96,-228,207,-10,-21,-11,93,-232,166,-6,-23,-11,92,-233,171,-3,-22,-11,88,-234,145,-4,-20,-11,86,-236,143,0,-18,-12,84,-238,123,-1,-17,-12,83,-239,119,0,-17,-11,80,-241,101,0,-18
tiltl,-12,79,-243,101,1,-17,-12,77,-243,86,5,-17,-12,76,-244,81,5,-17,-13,76,-245,73,5,-15,-12,74,-246,67,5,-16,-12,73,-246,57,7,-15,-12,72,-247,16,14,-14,-13,66,-252,-272,55,-15,-9,81,-243,-651,112,-27,-10,93,-236,-689,117,-18,-5,109,-224,-797,134,-58,-6,118,-215,-646,117,-63,-5,132,-205,-525,77,-30,-3,141,-198,-214,-4,-27,-7,145,-202,406,-76,-7,-7,124,-212,520,-46,-8,-8,114,-218,335,-25,-16,-7,115,-218,246,-19,-23,-8,108,-221,342,-23,-16,-8,105,-223,350,-23,-22,-9,96,-228,223,-12,-22,-9,96,-228,232,-16,-19,-10,91,-232,197,-11,-20,-10,88,-234,199,-8,-19,-10,85,-235,103,0,-22,-10,84,-237,176,-3,-14,-10,81,-238,121,-3,-20,-10,79,-240,128,0,-20,-10,76,-241,109,1,-20,-10,75,-242,107,1,-20
tiltl,-11,75,-243,100,3,-22,-11,73,-244,91,4,-21,-11,71,-245,84,4,-19,-11,70,-246,73,6,-20,-10,69,-247,62,7,-20,-11,67,-248,63,7,-16,-11,67,-249,18,12,-17,-11,66,-250,-111,34,-18,-11,69,-250,-372,86,-7,-7,75,-242,-923,155,-19,-5,100,-224,-843,149,-32,-5,109,-221,-590,148,-45,-3,120,-211,-593,124,-49,0,132,-200,-309,23,-9,-4,142,-199,387,-83,11,-4,117,-213,544,-53,7,-5,107,-219,329,-22,-3,-4,106,-219,180,-19,-3,-6,104,-222,286,-24,-4,-5,99,-225,254,-11,-7,-5,93,-228,152,-4,-5,-6,93,-230,174,-9,-5,-5,90,-232,118,0,-11,-5,88,-235,147,-3,-10,-6,86,-236,120,0,-8,-6,85,-237,129,-2,-11,-6,83,-239,110,0,-11,-6,81,-241,103,0,-9,-6,80,-242,98,2,-12,-7,79,-243,91,3,-12
tiltl,-6,77,-244,84,3,-12,-7,77,-244,76,4,-12,-7,76,-245,72,3,-12,-6,75,-246,59,5,-13,-6,74,-247,56,3,-13,-7,73,-248,-4,15,-11,-7,75,-248,-22,21,-16,-7,69,-250,-457,93,-23,-5,80,-239,-979,183,-31,-1,118,-214,-763,145,-95,0,115,-216,-552,127,-64,1,128,-208,-446,90,-26,2,141,-197,-57,-2,-40,0,137,-202,404,-48,-24,-1,119,-211,484,-42,-25,0,112,-218,158,-8,-34,-1,116,-216,201,-18,-24,-1,109,-221,314,-18,-22,-2,103,-223,228,-6,-26,-2,98,-227,182,-7,-22,-3,97,-228,192,-5,-19,-3,92,-231,165,-3,-23,-4,94,-232,176,-6,-21,-4,88,-235,143,-1,-17,-4,87,-236,145,-1,-18,-4,85,-238,135,1,-13,-5,82,-240,108,4,-16,-5,81,-241,116,3,-16,-5,79,-242,102,4,-17,-5,78,-243,99,4,-15
tiltl,-5,76,-245,82,6,-16,-5,75,-245,81,7,-14,-5,73,-246,68,5,-14,-5,72,-248,63,7,-13,-5,70,-248,49,9,-13,-5,69,-249,-28,17,-17,-7,66,-251,-269,56,-21,-6,74,-249,-352,79,-25,-1,86,-239,-689,108,-57,1,98,-232,-847,140,-56,0,115,-221,-534,108,-44,2,123,-214,-336,58,-39,1,131,-212,62,-22,-33,0,132,-209,567,-81,-20,-2,107,-225,415,-37,0,-2,101,-228,68,-9,-16,-2,108,-226,228,-28,-10,-2,101,-229,249,-21,-7,-2,93,-234,183,-9,-3,-1,97,-232,143,-12,-16,-2,92,-235,162,-6,-8,-2,89,-237,157,-6,-11,-3,88,-238,138,-2,-10,-2,85,-240,119,-2,-14,-3,83,-241,95,1,-12,-3,82,-242,133,0,-11,-3,80,-243,90,0,-15,-4,78,-244,90,3,-11,-4,77,-245,82,4,-12,-4,77,-246,80,5,-12
tiltl,-4,75,-247,60,2,-12,-4,75,-247,49,7,-13,-4,73,-248,50,7,-12,-4,74,-248,43,6,-15,-4,73,-249,18,13,-13,-4,74,-249,-10,15,-15,-6,69,-253,-283,72,-11,-4,87,-245,-425,96,-33,1,94,-235,-983,177,-32,0,118,-221,-525,125,-44,2,121,-216,-439,102,-27,5,133,-209,-236,38,-21,1,137,-209,139,-30,-26,1,128,-213,480,-49,-15,0,116,-221,384,-30,-13,0,113,-223,219,-11,-15,-1,113,-224,331,-25,-14,0,104,-228,256,-13,-15,-1,99,-231,225,-7,-10,0,96,-232,126,-1,-12,-1,94,-234,192,-6,-10,0,91,-236,149,-5,-12,-1,89,-238,148,-4,-11,0,86,-240,127,-1,-9,-1,84,-241,128,0,-10,0,83,-243,114,1,-12,-1,81,-243,108,0,-13,0,79,-245,95,4,-13,-1,77,-246,92,3,-10,-1,77,-247,75,5,-10
tiltl,-1,75,-247,70,6,-11,-1,75,-249,49,6,-14,0,74,-249,43,12,-14,0,75,-249,47,7,-13,0,73,-250,-18,18,-14,0,72,-251,-97,33,-14,0,74,-251,-358,82,-23,1,78,-248,-848,179,-18,6,106,-224,-821,178,-49,7,113,-221,-448,131,-23,8,123,-215,-331,76,-23,9,130,-211,26,15,-35,8,129,-211,462,-35,-13,5,112,-224,391,-22,-9,5,105,-227,187,0,-12,5,106,-227,247,-8,-12,4,101,-230,255,-6,-11,4,94,-233,191,0,-9,3,93,-234,174,0,-7,3,89,-236,156,-2,-10,2,86,-238,156,1,-11,2,85,-239,145,0,-10,2,82,-241,120,4,-11,2,81,-242,100,5,-11,1,78,-244,102,5,-11,1,78,-244,98,6,-8,1,75,-245,82,4,-12,1,75,-246,74,6,-11,0,74,-247,67,7,-12,0,73,-247,50,7,-15
tiltl,0,72,-248,53,9,-12,0,72,-249,43,9,-15,0,71,-250,7,14,-12,0,71,-250,8,14,-13,0,72,-250,-25,19,-17,0,71,-252,-119,37,-17,0,70,-250,-536,109,-36,2,82,-240,-949,184,-40,7,116,-217,-640,152,-66,9,112,-218,-499,108,-41,9,124,-210,-442,73,-37,9,136,-203,-27,-17,-44,7,133,-205,524,-78,-28,5,112,-218,582,-67,-8,4,98,-226,238,-26,-17,5,105,-222,222,-32,-23,3,95,-227,256,-23,-14,3,94,-229,237,-22,-20,3,89,-232,153,-11,-20,3,87,-234,165,-11,-18,3,86,-235,134,-7,-26,2,83,-237,138,-6,-21,2,82,-239,128,-7,-18,1,80,-241,120,-3,-19,1,78,-242,100,-3,-21,1,76,-243,93,-1,-16,1,74,-245,86,-1,-19,1,74,-246,81,1,-15,1,73,-246,69,0,-18,0,72,-247,67,3,-16
tiltl,0,70,-249,24,8,-17,0,71,-249,51,6,-15,0,70,-250,5,11,-17,0,71,-250,33,9,-18,0,70,-250,-1,13,-19,-1,65,-253,-161,46,-14,-2,71,-250,-626,125,-28,3,88,-237,-1061,213,-49,5,113,-220,-446,150,-29,8,116,-216,-421,103,-19,9,128,-209,-164,30,-32,7,131,-207,244,-28,-25,6,115,-217,523,-49,2,5,102,-224,384,-42,0,5,99,-226,239,-23,5,4,97,-227,276,-30,-4,3,90,-230,214,-17,-3,3,85,-232,93,-2,-1,3,87,-234,149,-12,-4,3,85,-236,149,-16,-7,3,82,-239,129,-12,-8,2,81,-240,120,-2,-3,2,79,-240,121,-2,-6,2,78,-242,111,-2,-7,2,76,-243,106,-1,-4,1,76,-244,90,3,-9,1,74,-245,71,7,-7,1,73,-246,72,3,-5,1,73,-247,72,5,-5,1,71,-247,64,9,-7
tiltl,1,70,-248,60,4,-8,1,70,-249,55,3,-10,1,69,-249,50,5,-11,1,69,-251,40,7,-12,1,69,-251,-2,13,-12,1,68,-252,8,16,-9,1,68,-253,-88,30,-12,1,69,-253,-393,83,-22,4,77,-245,-881,181,-44,10,105,-222,-802,166,-64,9,113,-220,-443,133,-26,12,120,-212,-353,68,-19,11,130,-208,129,-26,-27,9,117,-214,537,-58,1,7,99,-226,455,-47,17,7,94,-228,98,-18,8,7,99,-228,225,-35,-2,6,92,-232,187,-18,0,5,87,-234,134,-5,2,6,92,-233,58,-7,-17,5,90,-235,129,-5,-6,4,88,-237,107,-4,-6,4,85,-239,83,1,-11,4,87,-239,82,1,-12,3,85,-240,84,1,-11,3,83,-242,77,2,-11,3,82,-243,66,1,-12,3,82,-244,68,3,-11,2,81,-244,67,4,-8,2,80,-245,54,3,-10
tiltl,2,79,-246,57,3,-10,2,79,-247,51,3,-11,2,78,-247,49,4,-9,1,77,-248,40,6,-11,2,77,-249,19,10,-12,1,74,-250,-141,39,-13,1,83,-248,-584,102,-38,5,94,-235,-1000,194,-17,6,118,-220,-463,122,-27,8,123,-215,-386,70,-3,8,133,-209,-142,1,-16,7,132,-210,262,-41,-8,8,122,-218,426,-49,7,7,113,-223,319,-39,-1,6,108,-226,216,-21,-2,6,107,-227,241,-24,-3,6,102,-230,236,-21,-1,5,98,-232,179,-11,-4,5,96,-234,160,-12,-8,5,93,-236,156,-8,-7,4,90,-237,138,-8,-6,4,89,-239,107,-4,-9,4,86,-241,132,-2,-6,4,84,-241,97,0,-10,3,83,-242,98,2,-11,3,82,-244,86,2,-13,3,80,-245,86,1,-10,3,79,-246,69,4,-11,3,78,-246,68,4,-12,3,77,-247,59,5,-10
tiltl,3,76,-248,54,5,-9,3,75,-249,20,12,-9,3,76,-248,26,8,-12,3,74,-250,-4,12,-11,2,73,-251,-152,40,-12,2,73,-254,-360,90,-7,4,88,-243,-715,147,-31,11,106,-226,-804,167,-50,8,113,-224,-433,111,-14,11,122,-217,-296,51,-9,11,131,-212,120,-28,-28,8,116,-220,450,-43,8,7,104,-227,367,-32,5,8,100,-229,234,-22,-9,7,98,-231,214,-21,-6,6,94,-233,248,-22,-3,7,91,-236,183,-16,-7,5,88,-237,160,-8,-7,5,87,-237,98,-5,-14,5,84,-240,143,-2,-9,5,83,-241,112,-5,-11,4,81,-243,102,0,-11,4,79,-244,91,0,-12,4,78,-245,72,4,-12,4,77,-245,87,0,-12,3,75,-247,66,2,-12,3,74,-248,72,4,-10,3,73,-248,58,4,-12,3,72,-249,54,4,-13,3,72,-250,53,6,-12
tiltl,3,71,-251,46,6,-14,2,71,-251,36,8,-14,3,70,-251,24,7,-13,3,71,-252,11,12,-14,2,70,-252,-27,17,-13,2,70,-253,-151,38,-18,1,65,-257,-641,134,-28,4,84,-243,-1001,214,-42,7,119,-218,-478,143,-61,9,119,-218,-420,98,-26,10,128,-212,-202,39,-27,11,132,-216,332,-51,-26,7,111,-222,610,-43,15,7,100,-230,274,-16,7,7,107,-226,201,-22,0,6,99,-230,289,-21,0,6,92,-234,267,-13,6,5,90,-235,222,-13,3,5,86,-237,183,-7,-2,4,85,-238,204,-9,-6,4,80,-241,168,-7,-4,4,78,-242,147,-3,-6,4,77,-243,151,-1,-7,3,75,-244,155,-3,-7,3,73,-246,123,-1,-8,3,70,-247,117,2,-8,3,69,-248,112,0,-8,3,67,-248,103,1,-7,3,65,-249,79,3,-9,3,65,-249,62,7,-8
tiltl,3,63,-251,24,9,-10,3,63,-251,-28,20,-13,3,65,-251,-33,22,-14,3,66,-251,-101,33,-19,0,58,-257,-575,135,-14,1,73,-249,-781,199,-29,9,110,-219,-658,171,-77,10,107,-222,-467,129,-25,10,114,-217,-398,81,-24,10,130,-211,41,-1,-34,10,127,-213,361,-28,-15,9,111,-223,466,-38,-2,8,101,-227,292,-19,-2,8,103,-226,272,-20,-13,8,94,-231,240,-7,-5,7,89,-234,239,-9,-5,7,87,-235,172,-3,-14,7,84,-237,147,2,-13,6,83,-239,152,1,-12,7,79,-241,135,3,-11,6,78,-242,125,3,-15,6,77,-242,127,2,-12,6,74,-245,107,1,-15,6,72,-246,107,4,-12,6,70,-247,90,3,-12,5,69,-248,88,6,-12,5,68,-249,75,3,-14,6,67,-250,71,6,-12,5,66,-250,64,5,-11,5,65,-251,45,8,-11
tiltl,5,64,-252,15,13,-14,5,65,-251,14,12,-17,5,65,-252,-8,17,-16,4,64,-254,-112,33,-16,6,71,-250,-190,52,-30,4,66,-252,-546,124,-13,7,85,-246,-848,194,-38,12,116,-220,-581,157,-53,14,113,-220,-430,113,-29,16,125,-211,-194,33,-37,13,128,-214,282,-29,-38,11,113,-221,469,-37,-7,11,103,-227,305,-24,-7,11,102,-228,135,-11,-10,9,98,-231,241,-14,-8,10,94,-233,210,-12,-14,10,90,-235,154,-3,-8,9,90,-236,163,-9,-11,8,85,-239,126,-3,-11,8,83,-240,125,0,-12,8,81,-242,102,-1,-12,8,80,-244,110,2,-10,8,78,-245,84,5,-14,8,76,-246,84,6,-11,7,75,-246,76,5,-11,7,74,-248,72,6,-11,7,73,-248,60,7,-12,6,72,-249,59,5,-15,7,71,-250,52,6,-13,7,71,-251,28,13,-13
tiltl,6,70,-251,-47,26,-18,5,68,-254,-257,68,-20,5,74,-253,-441,114,-28,8,90,-241,-783,188,-52,14,113,-221,-711,177,-63,14,114,-220,-516,136,-49,15,125,-212,-421,90,-29,16,139,-204,-32,-4,-43,16,136,-208,414,-57,-26,15,116,-220,496,-53,-10,13,106,-226,245,-29,-12,14,110,-224,196,-29,-19,12,103,-228,263,-25,-11,12,95,-233,218,-16,-10,11,94,-234,96,-6,-14,11,92,-235,159,-12,-12,11,89,-237,134,-10,-15,10,87,-239,124,-5,-12,10,85,-240,87,-3,-14,9,85,-241,110,-4,-10,9,82,-243,92,0,-14,9,81,-243,85,1,-15,9,80,-245,79,-1,-10,8,78,-246,77,3,-14,8,77,-246,73,2,-13,8,76,-247,68,3,-13,8,75,-248,62,1,-15,7,74,-248,62,3,-13,8,73,-249,51,3,-14,7,72,-250,45,4,-16
tiltl,7,71,-251,46,4,-14,7,71,-251,36,7,-15,7,70,-252,-4,11,-17,7,72,-252,-37,19,-21,6,68,-254,-188,51,-15,6,72,-253,-602,123,-30,7,90,-239,-902,198,-35,13,117,-220,-492,128,-49,14,116,-218,-410,87,-23,15,129,-210,-144,8,-26,13,130,-216,336,-46,-26,12,113,-222,558,-59,-3,12,103,-228,303,-26,-9,11,103,-228,162,-17,-20,11,100,-231,266,-18,-15,10,95,-232,233,-14,-14,10,90,-235,161,-8,-12,9,92,-235,143,-11,-21,9,88,-238,166,-6,-15,10,87,-239,143,-8,-21,9,84,-241,127,-4,-14,8,83,-242,119,-3,-15,8,81,-243,101,-1,-16,8,79,-245,110,-3,-16,7,78,-245,89,0,-14,8,76,-247,88,3,-13,7,75,-247,78,2,-13,7,74,-248,71,3,-13,7,73,-249,62,5,-13,8,72,-250,57,6,-13
tiltl,7,71,-250,60,3,-12,7,71,-251,46,7,-12,7,70,-251,41,10,-13,7,69,-252,13,10,-13,7,69,-252,-47,21,-13,7,70,-253,-209,49,-19,6,69,-255,-507,113,-11,8,85,-244,-988,225,-29,14,119,-220,-458,142,-16,16,114,-218,-354,89,3,14,125,-216,32,-7,-5,14,122,-217,338,-43,6,11,113,-223,569,-62,45,12,99,-230,304,-37,29,11,102,-228,198,-33,9,10,90,-234,279,-20,18,10,88,-235,251,-21,15,10,82,-238,178,-13,7,9,81,-239,182,-9,4,9,76,-241,147,-8,5,9,75,-242,141,-7,-1,9,72,-244,133,-7,-1,8,71,-245,126,-5,-6,8,69,-246,119,-4,-4,8,66,-247,102,-2,-7,8,65,-248,105,-2,-6,7,63,-249,87,0,-8,7,63,-249,90,0,-6,7,60,-251,73,-1,-8,7,59,-252,74,4,-7
tiltl,7,58,-252,66,4,-8,6,58,-253,58,4,-9,7,56,-253,50,6,-7,6,57,-254,27,12,-11,7,56,-254,2,16,-12,6,55,-257,-125,37,-17,7,56,-256,-494,92,-42,5,57,-253,-871,204,-26,11,94,-227,-848,211,-78,14,100,-225,-460,152,-14,17,110,-212,-211,34,-27,14,114,-211,469,-70,-19,12,89,-223,706,-68,18,15,73,-232,288,-21,0,13,78,-228,226,-23,-53,11,72,-234,228,15,-55,12,66,-237,239,46,-69,16,64,-237,51,83,-73,15,63,-240,140,101,-62,20,60,-242,4,148,-55,23,63,-241,-28,167,-44,27,63,-240,-68,163,-26,34,72,-240,-87,137,4,43,76,-237,-28,86,44,41,76,-242,-70,29,69,41,79,-237,-34,-9,106,40,77,-237,-8,-65,134,34,82,-234,28,-107,137,30,77,-240,-7,-143,114,26,79,-242,33,-150,113
tiltl,20,76,-248,114,-125,90,20,74,-245,79,-115,62,16,70,-246,83,-135,48,14,73,-245,116,-85,70,16,70,-248,42,-63,30,17,66,-250,60,-76,30,14,65,-249,56,-73,32,13,67,-250,69,-62,35,12,64,-251,53,-55,28,11,63,-251,62,-57,25,11,62,-252,50,-48,25,9,61,-253,47,-44,21,8,60,-253,38,-38,14,8,60,-254,36,-32,10,7,60,-254,30,-24,15,7,60,-253,58,-25,11,7,58,-255,58,-16,3,6,55,-255,69,-10,2,5,57,-255,92,0,7,5,52,-256,45,18,-17