Lable,AccX1,AccY1,AccZ1,GyrX1,GyrY1,GyrZ1,AccX2,AccY2,AccZ2,GyrX2,GyrY2,GyrZ2,AccX3,AccY3,AccZ3,GyrX3,GyrY3,GyrZ3,AccX4,AccY4,AccZ4,GyrX4,GyrY4,GyrZ4,AccX5,AccY5,AccZ5,GyrX5,GyrY5,GyrZ5,AccX6,AccY6,AccZ6,GyrX6,GyrY6,GyrZ6,AccX7,AccY7,AccZ7,GyrX7,GyrY7,GyrZ7,AccX8,AccY8,AccZ8,GyrX8,GyrY8,GyrZ8,AccX9,AccY9,AccZ9,GyrX9,GyrY9,GyrZ9,AccX10,AccY10,AccZ10,GyrX10,GyrY10,GyrZ10,AccX11,AccY11,AccZ11,GyrX11,GyrY11,GyrZ11,AccX12,AccY12,AccZ12,GyrX12,GyrY12,GyrZ12,AccX13,AccY13,AccZ13,GyrX13,GyrY13,GyrZ13,AccX14,AccY14,AccZ14,GyrX14,GyrY14,GyrZ14,AccX15,AccY15,AccZ15,GyrX15,GyrY15,GyrZ15,AccX16,AccY16,AccZ16,GyrX16,GyrY16,GyrZ16,AccX17,AccY17,AccZ17,GyrX17,GyrY17,GyrZ17,AccX18,AccY18,AccZ18,GyrX18,GyrY18,GyrZ18,AccX19,AccY19,AccZ19,GyrX19,GyrY19,GyrZ19,AccX20,AccY20,AccZ20,GyrX20,GyrY20,GyrZ20,AccX21,AccY21,AccZ21,GyrX21,GyrY21,GyrZ21,AccX22,AccY22,AccZ22,GyrX22,GyrY22,GyrZ22,AccX23,AccY23,AccZ23,GyrX23,GyrY23,GyrZ23,AccX24,AccY24,AccZ24,GyrX24,GyrY24,GyrZ24,AccX25,AccY25,AccZ25,GyrX25,GyrY25,GyrZ25,AccX26,AccY26,AccZ26,GyrX26,GyrY26,GyrZ26,AccX27,AccY27,AccZ27,GyrX27,GyrY27,GyrZ27,AccX28,AccY28,AccZ28,GyrX28,GyrY28,GyrZ28,AccX29,AccY29,AccZ29,GyrX29,GyrY29,GyrZ29,AccX30,AccY30,AccZ30,GyrX30,GyrY30,GyrZ30
,,,,,,,,,,,,,,,,,,,,,,,,,,,,,,,,,,,,,,,,,,,,,,,,,,,,,,,,,,,,,,,,,,,,,,,,,,,,,,,,,,,,,,,,,,,,,,,,,,,,,,,,,,,,,,,,,,,,,,,,,,,,,,,,,,,,,,,,,,,,,,,,,,,,,,,,,,,,,,,,,,,,,,,,,,,,,,,,,,,,
down,9,98,-246,-119,34,-62,4,104,-243,-77,21,-15,9,102,-241,-7,36,-12,15,102,-241,-60,30,-47,10,104,-242,-34,27,-45,9,102,-244,-84,39,-64,9,106,-243,-34,55,-59,9,108,-245,-15,42,-51,10,112,-245,-59,49,-45,10,112,-244,-31,62,-28,10,111,-242,-28,65,-38,11,115,-243,-36,54,-47,12,112,-239,-41,58,-35,12,114,-237,-47,47,-31,12,113,-240,-43,29,-26,13,116,-242,-25,31,-31,12,117,-239,-16,33,-30,13,119,-238,-22,29,-23,13,119,-239,-11,32,-18,14,120,-238,-23,26,-18,14,119,-238,-9,30,-16,14,120,-238,-12,26,-16,15,121,-238,-12,28,-16,15,121,-238,-14,29,-16,15,121,-237,0,28,-13,16,121,-237,-7,29,-16,16,122,-236,1,28,-15,16,122,-237,4,27,-15,17,123,-236,0,25,-17,17,123,-237,6,27,-12
down,17,123,-236,5,30,-15,17,124,-236,0,27,-15,18,123,-236,8,26,-11,18,124,-236,2,24,-14,18,124,-235,7,23,-9,19,123,-236,8,21,-10,18,123,-235,18,15,-8,18,120,-229,23,0,-17,15,116,-224,55,-39,-26,12,112,-223,83,-101,-49,9,111,-226,76,-165,-82,3,112,-230,106,-226,-93,-1,115,-234,103,-269,-106,-6,113,-240,98,-281,-104,-12,117,-245,91,-260,-106,-17,118,-252,94,-192,-89,-19,118,-255,87,-104,-70,-23,116,-255,72,-24,-46,-24,115,-253,60,42,-25,-24,112,-252,40,112,-7,-22,109,-249,18,155,1,-18,108,-245,1,174,5,-15,108,-243,-16,179,16,-12,107,-241,-12,180,25,-8,106,-238,-33,174,14,-5,106,-237,-30,159,7,-1,107,-236,-23,136,5,1,108,-237,-14,125,1,4,110,-237,-7,116,0,7,111,-238,-14,105,-2
down,8,111,-238,-5,99,1,11,112,-237,-2,92,1,12,112,-237,1,86,-1,14,113,-237,0,76,-2,16,113,-238,3,68,-3,16,114,-238,10,64,0,16,110,-234,2,56,-13,15,109,-226,43,7,-12,13,105,-225,33,-71,-39,9,103,-227,64,-137,-55,4,102,-229,65,-209,-76,0,103,-232,48,-281,-99,-8,106,-239,56,-319,-117,-14,108,-246,39,-300,-120,-18,113,-252,40,-240,-108,-23,113,-256,36,-158,-83,-26,113,-257,45,-67,-52,-28,111,-256,18,21,-28,-27,107,-254,0,85,-9,-27,106,-252,19,152,18,-24,104,-248,-4,194,24,-19,102,-244,-24,208,25,-14,101,-241,-28,195,34,-11,101,-240,-18,187,32,-7,100,-239,-24,175,21,-3,102,-238,-11,159,20,1,101,-239,-22,141,13,3,103,-240,-8,132,13,6,104,-240,-6,122,11,9,104,-241,-3,113,10
down,11,104,-241,0,109,8,13,105,-240,-1,100,6,15,105,-241,-6,92,4,17,105,-241,-5,86,1,18,106,-240,-1,78,3,20,105,-238,1,64,1,21,103,-232,6,17,-7,15,98,-224,10,-57,-34,11,95,-219,-8,-154,-71,6,99,-223,-8,-268,-102,-1,105,-232,28,-350,-105,-6,103,-244,82,-361,-90,-14,111,-248,34,-301,-101,-18,113,-253,34,-225,-78,-22,113,-254,18,-145,-54,-25,112,-254,26,-57,-25,-26,110,-253,-8,14,-8,-27,110,-252,8,98,18,-24,108,-249,-15,150,27,-21,106,-246,-28,187,33,-17,105,-242,-35,207,35,-12,105,-237,-25,200,39,-8,105,-235,-36,175,34,-4,104,-236,-43,163,22,0,107,-236,-39,149,16,3,108,-236,-31,134,16,6,109,-237,-26,122,13,9,109,-237,-25,116,9,12,110,-237,-18,107,7,14,111,-237,-19,98,5
down,16,111,-237,-16,91,4,18,112,-237,-11,85,3,20,112,-237,-9,78,2,21,112,-235,-7,70,-1,22,112,-232,11,48,0,20,108,-226,46,15,-5,19,102,-222,44,-74,-33,14,103,-222,55,-170,-54,9,103,-226,32,-241,-90,3,102,-231,1,-310,-116,-5,106,-237,11,-346,-132,-11,111,-244,-4,-328,-138,-16,116,-251,-1,-267,-119,-22,120,-254,15,-185,-82,-25,118,-256,6,-95,-51,-27,117,-255,2,-10,-14,-28,113,-254,-25,66,4,-28,114,-251,-13,139,34,-24,112,-248,-39,182,43,-20,111,-242,-30,200,53,-16,109,-238,-51,195,55,-12,109,-235,-53,185,44,-7,110,-234,-50,166,32,-3,111,-233,-33,144,33,0,112,-234,-42,128,21,3,114,-235,-39,117,15,6,115,-235,-21,110,16,8,117,-235,-22,99,14,10,117,-235,-17,97,14,12,117,-234,-12,90,11
down,14,119,-233,-8,84,11,16,118,-234,-17,73,5,17,118,-233,-2,68,5,17,117,-229,14,51,-1,13,111,-222,29,18,-32,14,112,-220,46,-68,-48,12,107,-224,-32,-136,-101,9,109,-228,18,-215,-128,-2,110,-228,57,-272,-149,-9,113,-228,23,-323,-167,-15,118,-236,-4,-350,-185,-20,128,-247,18,-291,-150,-27,131,-252,40,-179,-104,-31,130,-250,38,-75,-56,-33,127,-250,24,20,-11,-33,125,-249,0,94,16,-32,122,-245,7,164,47,-28,119,-239,5,189,61,-24,116,-233,-6,185,65,-20,115,-230,-16,157,59,-15,114,-231,-1,136,47,-12,117,-232,-19,127,34,-7,118,-232,-2,116,34,-4,118,-233,-6,105,29,-1,119,-233,1,100,26,0,119,-233,6,98,22,4,120,-232,1,87,14,5,120,-233,1,78,13,7,121,-233,5,74,11,9,121,-234,2,70,10
down,10,121,-233,0,64,7,11,121,-232,7,53,7,11,119,-230,24,45,1,10,116,-225,8,19,-24,9,111,-221,-21,-37,-72,5,111,-218,32,-116,-93,-2,111,-216,65,-207,-120,-7,113,-219,49,-294,-151,-13,113,-228,-11,-342,-179,-21,119,-235,-1,-338,-197,-27,124,-240,0,-287,-185,-31,130,-243,9,-231,-144,-38,131,-247,17,-146,-90,-41,129,-248,22,-49,-43,-42,127,-247,27,41,5,-43,125,-245,32,120,37,-41,121,-241,69,183,77,-36,117,-238,36,209,75,-32,116,-233,36,213,85,-28,113,-230,26,202,81,-22,112,-229,28,181,71,-17,111,-230,10,158,53,-13,114,-231,22,140,53,-10,114,-233,25,135,46,-5,114,-233,13,119,39,-3,115,-234,19,111,37,0,115,-234,17,100,34,2,115,-235,15,93,30,4,115,-236,18,87,28,6,116,-236,16,84,27
down,9,116,-236,11,80,24,10,115,-235,8,72,22,11,116,-235,3,69,15,13,112,-234,-6,60,-1,12,111,-228,21,22,-12,9,107,-221,11,-42,-44,6,102,-220,74,-123,-72,2,101,-223,39,-220,-111,-4,106,-228,23,-305,-139,-11,109,-236,40,-346,-151,-18,113,-243,39,-325,-153,-22,117,-249,29,-276,-141,-27,122,-255,34,-199,-104,-33,122,-256,43,-93,-51,-35,120,-255,29,8,-15,-35,119,-253,16,91,17,-35,119,-250,23,155,55,-32,115,-246,-3,197,70,-27,112,-241,-8,209,80,-23,109,-236,-4,194,90,-19,108,-233,8,173,85,-15,109,-235,-10,163,63,-9,109,-235,-6,149,51,-5,111,-237,-1,133,48,-1,112,-236,4,126,43,0,113,-237,2,118,36,4,114,-237,3,108,33,6,114,-236,9,104,27,8,116,-235,11,94,25,10,115,-236,4,83,22
down,12,116,-236,5,80,17,14,116,-236,4,77,17,15,117,-235,7,71,13,17,117,-235,1,64,11,17,116,-234,1,62,2,17,114,-229,23,31,-1,15,112,-221,65,-21,-14,13,98,-221,83,-104,-59,6,106,-218,60,-206,-119,0,106,-225,74,-287,-153,-8,106,-231,60,-353,-193,-18,112,-238,54,-371,-200,-22,123,-248,32,-340,-169,-28,128,-258,60,-231,-109,-35,125,-258,46,-96,-65,-36,123,-256,31,7,-11,-37,123,-256,11,101,41,-37,121,-252,31,185,85,-33,114,-245,19,232,99,-27,111,-239,0,242,104,-21,110,-234,-4,227,103,-16,110,-232,-16,204,87,-10,111,-233,1,188,75,-4,111,-233,-2,165,65,0,113,-234,-8,145,59,4,112,-235,-2,132,51,7,113,-236,-1,126,44,10,113,-236,-1,115,35,13,115,-235,5,104,31,15,115,-235,9,97,30
down,18,115,-236,2,90,22,20,116,-236,5,85,22,21,116,-235,1,79,19,23,116,-235,1,74,13,24,114,-234,9,72,9,23,110,-227,22,38,-2,19,104,-218,46,-4,-52,18,95,-216,19,-97,-126,8,98,-214,46,-227,-191,0,104,-216,73,-361,-228,-11,112,-230,28,-429,-247,-18,121,-247,45,-394,-234,-22,128,-255,28,-269,-184,-27,128,-254,32,-147,-122,-33,127,-254,3,-49,-59,-35,125,-254,-7,44,-8,-36,121,-251,-31,128,32,-32,119,-247,-18,196,69,-28,115,-240,-24,224,86,-22,113,-233,-8,220,89,-17,111,-231,-21,198,82,-12,111,-231,-35,178,70,-6,111,-230,-26,157,62,-1,113,-232,-12,140,54,3,114,-231,-18,124,48,6,115,-232,-24,107,40,9,116,-233,-16,97,38,12,116,-233,-13,89,34,15,117,-234,-20,85,25,17,117,-234,-10,75,26
down,19,118,-234,-15,69,22,21,118,-233,-8,67,18,23,118,-234,-4,59,14,24,119,-234,-3,61,8,26,119,-233,6,52,8,26,117,-231,12,49,-1,24,113,-225,27,27,-19,22,106,-219,18,-36,-57,18,103,-214,40,-136,-128,14,104,-220,0,-239,-196,3,116,-225,6,-326,-226,-4,113,-234,46,-354,-227,-12,121,-240,49,-323,-227,-14,130,-245,47,-271,-194,-21,135,-251,20,-202,-133,-27,132,-254,34,-90,-67,-28,133,-254,34,20,-7,-28,130,-254,17,104,56,-27,125,-251,31,183,101,-24,121,-243,36,217,125,-20,115,-234,-18,223,123,-13,112,-230,-15,181,117,-9,113,-231,-15,158,97,-3,115,-231,-5,141,87,1,115,-233,-4,133,71,5,117,-233,-2,112,64,9,117,-234,-6,107,54,12,118,-233,11,98,51,15,118,-234,2,87,43,16,119,-234,9,83,40
down,18,119,-234,-4,77,31,21,119,-233,-2,70,28,22,120,-233,4,62,27,23,120,-233,6,58,25,25,118,-230,2,51,12,24,115,-226,-23,19,-11,19,112,-217,45,-29,-25,16,107,-215,-30,-109,-93,10,102,-217,-39,-211,-185,5,111,-219,-95,-291,-246,-4,120,-225,-54,-359,-261,-16,127,-229,-46,-372,-270,-25,132,-232,5,-334,-263,-27,145,-238,-5,-283,-212,-35,149,-244,22,-195,-119,-42,148,-244,59,-74,-40,-44,144,-241,85,29,26,-44,142,-238,86,104,79,-42,136,-234,94,162,116,-38,130,-229,68,191,123,-33,126,-226,52,192,124,-29,123,-223,33,189,107,-22,123,-223,24,167,92,-17,124,-224,34,146,88,-12,124,-225,30,136,76,-8,124,-226,21,126,65,-3,124,-227,17,118,54,0,124,-227,27,107,49,3,125,-228,24,99,44,5,124,-228,21,94,36
down,7,126,-229,13,85,32,10,126,-229,25,79,34,12,125,-229,13,77,26,13,124,-226,29,68,19,10,120,-220,33,38,-6,10,119,-215,36,-18,-40,7,111,-217,30,-75,-95,6,111,-216,62,-185,-131,-5,116,-218,73,-298,-160,-14,120,-225,71,-373,-173,-23,118,-236,2,-387,-197,-27,122,-243,-4,-344,-203,-32,134,-248,48,-274,-143,-40,134,-253,29,-166,-94,-44,131,-253,26,-52,-40,-44,129,-251,38,40,12,-45,128,-249,37,130,52,-43,122,-245,45,196,76,-38,118,-239,28,228,86,-33,115,-234,21,226,94,-28,113,-230,9,208,88,-22,114,-230,-14,182,72,-18,112,-231,4,165,68,-12,114,-231,5,146,62,-8,113,-233,-12,134,48,-3,114,-235,-13,125,44,0,114,-234,6,118,39,2,114,-234,-9,107,30,5,115,-235,-2,98,27,7,116,-235,-3,92,26
down,10,115,-235,-8,89,18,12,115,-236,-2,81,14,14,117,-236,1,74,14,14,115,-234,6,68,8,16,115,-232,-8,52,-5,13,112,-226,27,28,-16,12,107,-221,48,-35,-51,11,106,-220,79,-135,-67,4,103,-221,77,-245,-111,-6,104,-225,40,-339,-144,-17,109,-229,73,-401,-165,-24,112,-238,9,-414,-176,-30,118,-246,-18,-379,-168,-36,125,-258,10,-287,-112,-43,126,-259,13,-158,-75,-47,123,-259,3,-31,-29,-49,121,-256,17,80,14,-48,120,-252,16,165,47,-45,114,-248,1,226,60,-41,112,-240,-10,251,61,-35,110,-235,-25,248,60,-30,109,-231,-13,216,63,-24,111,-231,-21,187,50,-19,111,-233,0,173,51,-13,112,-233,-21,151,42,-9,112,-235,-15,141,37,-6,113,-234,-3,134,31,-2,113,-235,-6,123,24,1,113,-235,-6,118,18,3,114,-235,3,111,16
down,6,115,-235,4,99,15,8,115,-235,-2,93,11,11,116,-234,-4,88,9,12,114,-234,-3,76,3,14,115,-232,10,63,0,12,112,-229,42,51,-12,10,104,-223,103,12,-47,10,96,-223,41,-63,-101,6,97,-222,89,-196,-118,-5,100,-219,130,-323,-126,-14,101,-234,51,-367,-164,-20,105,-245,-27,-366,-183,-25,113,-247,42,-317,-161,-29,111,-251,28,-268,-136,-34,116,-259,14,-178,-90,-39,118,-261,17,-62,-35,-41,116,-260,16,45,12,-41,110,-257,25,139,35,-40,106,-251,7,207,69,-35,104,-242,-14,231,78,-30,102,-239,-10,212,91,-26,101,-238,-24,210,85,-20,99,-237,-24,202,76,-14,101,-236,-16,183,65,-8,101,-237,-25,164,54,-4,103,-238,-13,155,50,-1,104,-238,-14,144,43,2,105,-238,-14,135,38,5,106,-237,-8,125,36,9,106,-238,-17,108,31
down,10,107,-238,-11,103,29,13,107,-239,-14,100,20,17,108,-239,-13,88,18,17,109,-238,5,79,16,19,109,-237,-3,67,12,20,106,-234,-16,52,-2,18,101,-226,0,4,-29,14,99,-216,-70,-108,-93,8,105,-214,18,-220,-101,0,96,-222,-61,-307,-150,-6,101,-231,-51,-407,-184,-16,108,-237,-13,-449,-199,-26,115,-241,-8,-400,-192,-31,123,-248,7,-346,-157,-38,127,-254,18,-250,-95,-44,126,-255,24,-134,-46,-47,127,-254,31,-17,18,-51,124,-252,39,86,56,-48,119,-247,31,170,86,-44,116,-239,32,203,101,-39,113,-233,16,204,104,-34,111,-232,6,197,95,-28,110,-230,-5,186,77,-23,113,-229,13,168,69,-18,113,-231,5,153,60,-14,114,-231,6,142,50,-9,115,-232,4,129,43,-6,117,-232,9,121,39,-2,116,-232,8,114,34,0,118,-232,7,99,30
down,3,118,-233,7,93,26,5,118,-234,7,86,22,8,119,-233,11,81,20,9,118,-233,11,75,13,10,118,-233,15,67,7,10,117,-230,31,55,1,9,112,-224,23,26,-20,8,109,-220,35,-25,-57,5,101,-214,53,-120,-106,0,107,-214,56,-250,-149,-9,109,-225,61,-328,-176,-19,111,-230,75,-351,-197,-26,113,-234,79,-369,-198,-30,126,-241,77,-339,-180,-37,128,-252,67,-270,-126,-44,127,-257,72,-130,-74,-48,127,-257,51,4,-22,-48,123,-257,32,115,22,-49,119,-252,47,216,70,-46,113,-243,60,276,84,-39,108,-234,-3,274,76,-32,106,-229,-1,232,68,-25,111,-230,-5,207,59,-20,112,-234,-14,203,46,-15,113,-233,-11,188,46,-10,113,-232,-14,175,41,-5,113,-232,-12,160,34,-1,114,-233,-17,148,24,1,115,-233,-9,131,23,5,115,-233,-14,118,13
down,8,117,-234,-11,110,12,10,117,-234,-7,105,13,12,118,-233,-4,96,11,14,119,-233,-6,87,10,16,119,-233,-7,80,4,18,117,-233,-1,72,0,18,117,-229,5,54,-9,14,111,-220,18,17,-40,12,107,-212,29,-59,-97,10,106,-215,-17,-176,-135,2,108,-220,4,-272,-176,-8,110,-224,62,-329,-216,-15,110,-230,-4,-379,-251,-25,116,-232,57,-371,-244,-31,123,-239,13,-361,-234,-37,129,-250,5,-287,-181,-45,133,-255,32,-157,-107,-49,129,-254,13,-19,-57,-50,127,-253,15,92,2,-50,126,-246,18,177,50,-47,120,-239,14,236,79,-43,114,-231,24,240,90,-36,111,-229,-39,210,77,-31,112,-230,-7,201,72,-25,111,-231,-22,188,61,-19,113,-231,-29,179,45,-14,114,-230,-19,165,47,-10,115,-231,-24,146,38,-6,116,-231,-19,138,33,-2,117,-231,-19,125,33
down,0,117,-232,-33,114,23,3,118,-232,-27,106,21,6,119,-232,-17,100,21,8,119,-232,-19,96,16,10,120,-232,-10,88,16,12,120,-231,-12,80,11,13,119,-228,2,67,7,12,114,-222,8,34,-6,11,109,-216,54,-31,-31,6,105,-211,81,-148,-73,-3,103,-214,54,-268,-124,-12,110,-219,71,-327,-173,-18,108,-230,59,-380,-191,-25,115,-239,18,-403,-188,-30,123,-251,18,-341,-170,-35,128,-259,54,-219,-111,-41,125,-259,24,-88,-63,-44,125,-259,7,16,-13,-44,123,-257,11,122,30,-44,121,-251,15,202,75,-41,114,-242,23,250,89,-35,111,-233,-1,246,83,-28,110,-233,-27,204,77,-24,111,-233,11,190,77,-18,109,-233,-19,189,53,-12,112,-233,-11,167,50,-7,113,-233,-14,149,43,-4,114,-233,2,143,42,0,114,-233,-3,134,35,2,115,-233,-6,120,32
down,5,115,-233,1,115,29,8,116,-233,-5,104,22,11,116,-233,-7,95,20,13,116,-233,0,92,14,14,117,-231,5,81,10,14,114,-226,13,53,-3,12,111,-220,57,4,-19,10,106,-217,75,-58,-52,6,100,-217,83,-165,-97,-1,102,-218,97,-274,-131,-8,102,-225,58,-369,-166,-19,105,-236,47,-436,-170,-26,114,-242,51,-415,-191,-33,111,-263,-27,-311,-118,-35,116,-255,174,-222,-92,-44,129,-257,52,-102,-36,-48,122,-258,34,11,18,-48,117,-256,50,100,55,-47,119,-247,91,170,100,-45,112,-243,55,222,110,-40,108,-237,30,228,104,-34,108,-232,20,207,99,-28,108,-231,22,184,91,-24,108,-233,4,167,77,-19,110,-234,11,162,66,-14,111,-233,9,147,58,-10,112,-233,12,134,52,-6,112,-235,-2,125,42,-3,114,-236,5,118,38,0,113,-235,7,109,33
down,3,115,-234,5,97,29,5,114,-235,5,85,27,6,115,-235,1,81,20,8,115,-233,18,69,20,9,113,-231,7,48,8,7,112,-228,36,27,-5,5,110,-222,77,-23,-32,4,106,-219,75,-93,-64,-1,101,-222,72,-179,-85,-5,100,-227,78,-258,-126,-11,107,-231,73,-319,-151,-20,108,-237,124,-341,-136,-27,110,-241,86,-340,-140,-30,111,-250,76,-297,-126,-36,114,-259,67,-201,-93,-41,116,-260,79,-73,-39,-43,114,-259,25,28,-3,-44,110,-257,-6,91,34,-43,110,-252,15,182,73,-40,104,-247,-4,227,89,-34,101,-241,-24,231,94,-29,100,-236,-38,205,89,-24,99,-235,-47,197,70,-18,101,-236,-34,179,62,-13,103,-236,-25,166,53,-9,106,-235,-28,147,44,-5,106,-236,-39,138,30,-1,108,-237,-30,128,29,1,109,-236,-17,118,29,4,111,-235,-12,101,28
down,7,111,-236,-25,95,20,9,111,-237,-19,89,16,11,111,-236,-5,81,13,12,112,-234,5,67,7,14,111,-235,-13,49,-4,12,109,-230,15,33,-13,10,103,-221,17,-16,-41,7,99,-217,51,-124,-81,0,96,-218,45,-239,-140,-7,101,-222,51,-350,-180,-19,107,-233,48,-394,-193,-24,111,-243,62,-383,-178,-29,113,-244,39,-332,-180,-33,119,-253,19,-276,-144,-41,120,-263,36,-157,-82,-44,118,-265,11,-17,-29,-46,117,-260,24,112,21,-46,115,-253,28,208,59,-43,108,-244,45,261,76,-38,102,-233,-5,248,68,-33,102,-231,-39,206,54,-28,106,-233,-21,191,48,-23,107,-233,-10,179,46,-18,107,-233,-34,160,36,-15,109,-234,-19,150,31,-9,111,-233,-17,136,28,-7,111,-233,-5,122,29,-3,112,-233,-10,111,24,0,113,-234,-14,100,18,1,114,-234,0,100,19
down,5,114,-234,-15,93,10,7,115,-234,-7,86,12,8,115,-233,4,76,12,9,115,-231,0,55,5,9,114,-227,17,30,3,7,107,-222,31,-21,-12,3,104,-216,-7,-98,-70,0,100,-217,21,-205,-126,-8,101,-221,18,-307,-193,-20,107,-227,12,-380,-222,-27,118,-238,47,-356,-203,-31,117,-244,18,-316,-209,-34,123,-252,-30,-264,-170,-42,130,-261,13,-138,-95,-47,129,-262,17,0,-18,-48,125,-257,7,110,35,-48,121,-251,20,201,71,-44,116,-242,38,242,96,-38,109,-234,-8,232,85,-32,110,-232,-30,196,83,-29,112,-232,-8,185,73,-22,111,-231,-6,166,61,-18,113,-232,-6,148,51,-13,114,-233,-13,134,42,-10,114,-233,-5,123,38,-7,116,-234,-3,113,37,-4,116,-235,-7,102,33,-1,116,-234,-7,101,22,1,117,-234,-3,89,23,4,118,-235,-2,83,18
down,5,117,-235,4,79,16,7,119,-234,3,71,16,8,119,-235,-2,69,10,10,119,-234,1,59,8,11,119,-233,-3,52,3,11,118,-231,12,34,2,10,115,-227,27,8,-11,8,107,-221,51,-39,-38,5,103,-217,24,-133,-108,-6,102,-215,87,-250,-147,-12,107,-219,127,-369,-207,-23,111,-235,101,-406,-238,-29,112,-245,121,-363,-212,-35,116,-244,97,-330,-200,-37,118,-254,35,-285,-164,-46,123,-262,49,-157,-93,-50,120,-262,17,-14,-43,-53,118,-257,-12,86,4,-53,114,-251,-11,158,42,-50,109,-244,-14,211,67,-44,105,-236,-25,214,62,-39,106,-232,-55,182,56,-35,107,-234,-53,168,56,-30,106,-235,-31,166,49,-24,107,-233,-40,143,34,-20,110,-234,-35,128,36,-16,110,-235,-39,121,29,-13,111,-235,-21,114,27,-9,112,-235,-27,97,20,-7,114,-236,-14,95,19
down,-4,114,-235,-20,88,15,-2,115,-235,-19,81,12,0,116,-235,-14,74,17,1,116,-234,-11,73,11,2,115,-231,-1,59,7,2,113,-227,9,29,-1,1,106,-220,5,-21,-40,-4,103,-213,42,-111,-95,-9,106,-211,117,-230,-129,-16,107,-222,16,-351,-186,-29,113,-230,205,-399,-172,-35,113,-240,127,-381,-167,-38,117,-243,132,-317,-154,-44,124,-247,115,-253,-124,-51,121,-252,82,-143,-85,-54,119,-253,54,-41,-39,-55,119,-252,25,50,8,-55,114,-250,26,132,34,-54,112,-245,12,195,64,-51,110,-239,-15,222,73,-45,108,-233,-19,216,78,-40,107,-232,-19,202,73,-35,109,-231,-27,189,61,-30,111,-231,-34,177,51,-25,112,-232,-32,160,49,-21,113,-231,-16,155,42,-16,115,-231,-39,135,33,-13,115,-232,-20,127,33,-10,117,-232,-9,116,31,-6,117,-232,-19,109,22
down,-4,118,-232,-18,100,18,-2,119,-233,-3,92,22,0,120,-233,-3,85,20,2,120,-232,-15,78,11,4,120,-232,-16,66,7,3,117,-227,1,48,4,1,112,-220,-12,4,-30,0,114,-213,41,-68,-62,-7,104,-216,-16,-164,-136,-12,111,-216,36,-241,-186,-18,108,-225,15,-325,-215,-31,112,-227,93,-377,-199,-38,118,-232,47,-380,-234,-48,113,-255,-245,-256,-177,-48,129,-245,148,-208,-117,-53,133,-248,-62,-123,-77,-60,129,-249,15,-2,-9,-61,126,-248,-26,93,49,-59,122,-243,4,150,80,-57,119,-237,13,197,104,-50,113,-233,-26,209,97,-45,114,-230,-14,203,102,-40,114,-229,-7,184,96,-35,113,-229,-20,169,84,-29,114,-230,-25,163,67,-25,117,-230,-10,150,65,-21,116,-230,-13,142,54,-17,118,-230,-10,124,52,-15,119,-230,0,115,48,-11,120,-230,-9,109,38
down,-8,120,-231,-5,98,35,-6,121,-232,-5,91,32,-3,121,-232,-14,84,24,-1,121,-232,-5,80,22,0,121,-230,11,68,18,0,119,-226,25,46,9,-3,111,-218,37,2,-26,-6,109,-211,84,-74,-72,-11,105,-213,19,-176,-139,-15,109,-220,111,-287,-171,-24,112,-229,74,-333,-199,-29,115,-241,19,-312,-211,-36,119,-240,65,-279,-176,-40,121,-244,25,-247,-162,-44,125,-255,-12,-163,-112,-50,126,-256,2,-44,-53,-52,124,-253,-20,58,0,-51,122,-252,-23,131,48,-51,121,-246,-19,192,94,-46,114,-241,-44,224,104,-41,111,-234,-40,222,105,-35,113,-231,-65,193,97,-31,113,-231,-41,180,91,-25,113,-231,-54,168,73,-20,115,-231,-42,155,62,-16,118,-231,-39,141,58,-13,118,-230,-29,134,49,-8,120,-231,-35,118,46,-6,120,-231,-21,109,42,-3,122,-231,-22,98,36
down,-1,123,-231,-18,92,32,0,123,-231,-17,83,29,2,124,-231,-8,78,26,4,122,-230,-11,65,18,4,122,-225,18,43,9,1,116,-218,84,0,0,-1,113,-212,13,-72,-71,-6,112,-211,103,-162,-94,-11,105,-218,24,-265,-161,-22,112,-227,107,-340,-189,-28,123,-234,115,-342,-201,-32,116,-243,31,-328,-189,-36,123,-245,64,-283,-160,-43,128,-251,72,-218,-116,-48,130,-255,59,-106,-58,-52,127,-256,20,2,2,-52,124,-253,21,90,48,-53,125,-249,34,163,89,-50,118,-244,14,221,106,-46,115,-235,-13,243,104,-39,114,-230,-22,216,100,-35,114,-231,-42,188,85,-29,113,-232,-17,184,71,-23,116,-230,-12,168,63,-19,117,-231,-25,146,55,-15,117,-233,-19,136,46,-11,119,-232,-9,129,40,-7,120,-232,-8,111,37,-5,121,-233,-7,103,35,-2,121,-233,-7,98,30
down,0,121,-233,-1,93,27,2,122,-233,1,85,24,4,121,-232,1,77,18,5,122,-229,8,61,16,5,120,-226,8,37,4,5,116,-223,1,-6,-20,0,112,-216,33,-76,-59,-5,109,-212,18,-164,-115,-10,105,-217,54,-257,-174,-18,108,-224,25,-339,-211,-26,116,-233,-6,-378,-210,-32,125,-240,25,-348,-199,-37,133,-245,34,-287,-177,-43,135,-250,11,-201,-120,-48,136,-252,20,-90,-44,-51,138,-251,11,21,19,-50,130,-248,20,110,66,-50,129,-240,57,177,112,-46,122,-236,24,213,120,-41,119,-231,-6,212,121,-35,117,-227,-26,191,104,-30,118,-226,-17,176,90,-24,119,-227,-5,157,79,-20,121,-228,-11,138,72,-15,121,-229,-17,130,57,-11,123,-230,-11,122,54,-8,123,-229,-2,116,50,-5,124,-229,-8,103,43,-3,125,-229,0,94,43,0,126,-230,-4,87,36
down,2,127,-229,3,85,32,4,127,-230,-9,75,28,6,127,-230,2,76,26,7,127,-229,4,67,19,8,127,-225,9,53,14,7,124,-221,29,27,2,5,114,-218,44,-20,-36,0,112,-210,59,-111,-96,-6,109,-212,26,-201,-173,-13,114,-216,36,-296,-212,-23,117,-227,7,-341,-238,-29,123,-234,33,-315,-235,-32,121,-234,13,-304,-222,-39,132,-236,26,-290,-194,-44,134,-248,-10,-224,-139,-50,136,-252,17,-98,-59,-53,135,-251,8,17,4,-54,133,-247,37,107,63,-53,132,-242,30,179,121,-51,122,-239,26,224,133,-45,121,-230,-2,235,134,-38,117,-226,-26,214,124,-33,117,-226,-7,185,121,-27,118,-227,-7,180,93,-21,119,-228,-15,169,76,-16,120,-228,-14,147,72,-12,121,-228,-4,140,65,-9,122,-228,-1,131,55,-4,123,-229,-13,114,48,-2,123,-229,0,108,45
down,1,124,-229,-4,99,37,2,125,-229,2,93,36,5,125,-228,9,83,32,6,124,-226,2,68,23,7,120,-222,19,46,6,2,113,-214,55,3,-38,-1,109,-208,39,-76,-112,-8,106,-205,136,-179,-143,-14,103,-220,21,-297,-195,-24,119,-232,96,-322,-218,-28,110,-239,21,-297,-209,-35,122,-232,62,-303,-201,-36,119,-242,-70,-286,-212,-41,133,-252,34,-216,-134,-48,133,-257,6,-80,-66,-53,134,-253,51,36,9,-52,130,-251,26,127,63,-51,127,-245,44,203,111,-49,120,-240,23,245,127,-42,115,-232,-3,252,124,-35,115,-227,-3,212,121,-31,116,-227,1,188,113,-25,116,-230,0,176,95,-19,117,-229,-1,168,83,-13,116,-231,-1,149,74,-10,119,-231,-7,136,68,-6,119,-232,-3,130,60,-2,119,-232,-6,121,54,1,119,-232,-5,109,48,3,121,-232,0,97,45
down,6,121,-232,0,90,39,8,121,-233,-1,84,34,10,121,-232,1,77,29,11,122,-231,8,68,25,13,121,-230,-4,54,14,13,119,-227,4,31,1,9,114,-217,46,-15,-17,6,110,-212,-4,-98,-82,0,110,-211,40,-200,-133,-6,107,-219,1,-288,-204,-16,119,-226,62,-347,-221,-27,127,-231,88,-343,-216,-27,134,-238,11,-302,-243,-35,135,-253,4,-153,-208,-34,146,-246,86,27,-120,-27,152,-247,200,143,17,-22,144,-246,191,220,130,-15,129,-237,177,199,228,-13,118,-225,79,104,264,-27,109,-229,17,-49,154,-40,103,-237,37,-35,123,-36,96,-244,117,10,72,-38,98,-251,107,-79,77,-40,89,-251,68,-9,35,-33,89,-252,129,-14,55,-28,84,-250,79,-16,56,-27,86,-252,118,-32,53,-26,79,-253,98,-12,50,-22,79,-253,110,-14,47,-20,77,-253,89,-8,34
down,-17,75,-253,97,-14,26,-17,69,-255,71,-16,26,,,,,,,,,,,,,,,,,,,,,,,,,,,,,,,,,,,,,,,,,,,,,,,,,,,,,,,,,,,,,,,,,,,,,,,,,,,,,,,,,,,,,,,,,,,,,,,,,,,,,,,,,,,,,,,,,,,,,,,,,,,,,,,,,,,,,,,,,,,,,,,,,,,,,,,,,,,,,,,,,,,,,,,,
