Lable,AccX1,AccY1,AccZ1,GyrX1,GyrY1,GyrZ1,AccX2,AccY2,AccZ2,GyrX2,GyrY2,GyrZ2,AccX3,AccY3,AccZ3,GyrX3,GyrY3,GyrZ3,AccX4,AccY4,AccZ4,GyrX4,GyrY4,GyrZ4,AccX5,AccY5,AccZ5,GyrX5,GyrY5,GyrZ5,AccX6,AccY6,AccZ6,GyrX6,GyrY6,GyrZ6,AccX7,AccY7,AccZ7,GyrX7,GyrY7,GyrZ7,AccX8,AccY8,AccZ8,GyrX8,GyrY8,GyrZ8,AccX9,AccY9,AccZ9,GyrX9,GyrY9,GyrZ9,AccX10,AccY10,AccZ10,GyrX10,GyrY10,GyrZ10,AccX11,AccY11,AccZ11,GyrX11,GyrY11,GyrZ11,AccX12,AccY12,AccZ12,GyrX12,GyrY12,GyrZ12,AccX13,AccY13,AccZ13,GyrX13,GyrY13,GyrZ13,AccX14,AccY14,AccZ14,GyrX14,GyrY14,GyrZ14,AccX15,AccY15,AccZ15,GyrX15,GyrY15,GyrZ15,AccX16,AccY16,AccZ16,GyrX16,GyrY16,GyrZ16,AccX17,AccY17,AccZ17,GyrX17,GyrY17,GyrZ17,AccX18,AccY18,AccZ18,GyrX18,GyrY18,GyrZ18,AccX19,AccY19,AccZ19,GyrX19,GyrY19,GyrZ19,AccX20,AccY20,AccZ20,GyrX20,GyrY20,GyrZ20,AccX21,AccY21,AccZ21,GyrX21,GyrY21,GyrZ21,AccX22,AccY22,AccZ22,GyrX22,GyrY22,GyrZ22,AccX23,AccY23,AccZ23,GyrX23,GyrY23,GyrZ23,AccX24,AccY24,AccZ24,GyrX24,GyrY24,GyrZ24,AccX25,AccY25,AccZ25,GyrX25,GyrY25,GyrZ25,AccX26,AccY26,AccZ26,GyrX26,GyrY26,GyrZ26,AccX27,AccY27,AccZ27,GyrX27,GyrY27,GyrZ27,AccX28,AccY28,AccZ28,GyrX28,GyrY28,GyrZ28,AccX29,AccY29,AccZ29,GyrX29,GyrY29,GyrZ29,AccX30,AccY30,AccZ30,GyrX30,GyrY30,GyrZ30

up,-1,121,-238,-13,9,-1,-1,121,-236,-13,7,-4,-1,118,-236,6,7,2,-2,121,-237,11,11,-4,-1,120,-237,-9,9,-4,-1,121,-236,12,8,-3,-1,119,-237,-6,10,-5,0,120,-237,9,9,-4,-1,120,-237,3,6,-8,-1,120,-236,0,-4,-12,0,121,-240,-2,8,-14,1,119,-238,-30,0,-16,-1,120,-239,11,10,-10,0,121,-236,24,9,-9,-1,120,-238,19,4,-9,-2,120,-237,3,0,-8,-2,118,-239,16,3,-7,-2,119,-238,21,3,-7,-2,118,-238,13,2,-7,-3,119,-237,10,0,-7,-3,118,-237,15,0,-6,-3,117,-238,15,1,-6,-4,118,-238,11,2,-8,-4,118,-238,14,4,-8,-4,118,-238,12,2,-8,-5,118,-238,13,5,-7,-5,118,-238,11,5,-8,-5,118,-237,14,6,-7,-5,117,-238,6,3,-9,-5,118,-238,14,5,-6
up,-5,117,-238,16,4,-7,-5,117,-238,7,4,-10,-5,117,-238,14,5,-8,-5,118,-238,10,7,-9,-5,118,-237,10,7,-9,-4,119,-242,21,11,-15,-2,131,-262,-19,94,10,-2,133,-266,27,242,76,1,128,-260,-8,346,113,6,123,-249,-7,403,143,13,118,-242,2,424,162,20,112,-233,-31,418,161,28,110,-223,-45,392,145,34,106,-213,1,331,123,40,102,-207,-17,246,79,43,102,-203,43,139,47,43,100,-204,63,47,-4,44,100,-209,50,-40,-51,44,106,-215,27,-129,-83,43,105,-225,55,-178,-96,37,112,-230,63,-201,-96,35,113,-236,40,-194,-89,31,114,-238,74,-180,-73,27,110,-241,72,-155,-68,25,109,-240,53,-133,-64,23,108,-241,56,-120,-57,20,107,-241,60,-107,-52,18,106,-242,51,-98,-50,15,106,-242,54,-84,-43,14,105,-243,43,-75,-44
up,13,104,-243,46,-66,-37,11,104,-243,38,-61,-38,10,103,-244,38,-55,-34,9,103,-245,36,-48,-32,8,102,-245,31,-38,-29,8,103,-249,24,-30,-30,11,111,-266,5,37,-17,9,117,-270,35,167,35,11,112,-267,6,279,69,15,108,-258,20,346,96,21,101,-249,-3,394,103,29,101,-239,9,375,118,36,96,-232,1,348,110,43,92,-225,2,295,83,48,91,-222,-12,230,47,53,92,-219,26,152,31,54,94,-218,45,72,10,54,91,-219,50,-7,-23,50,92,-219,103,-79,-38,51,96,-225,20,-146,-74,46,97,-229,68,-183,-72,45,99,-236,19,-204,-88,40,103,-241,41,-198,-70,37,101,-245,28,-172,-63,34,101,-244,59,-144,-55,32,100,-244,23,-128,-60,29,99,-244,42,-113,-50,27,99,-244,28,-104,-53,25,99,-244,37,-96,-46,23,98,-245,29,-90,-44
up,21,99,-245,36,-84,-37,19,99,-246,29,-78,-35,17,98,-246,31,-67,-31,16,97,-246,27,-60,-32,15,97,-247,41,-53,-25,14,97,-249,24,-46,-29,15,102,-260,8,-9,-22,15,105,-269,12,93,4,16,107,-268,17,205,42,19,103,-263,26,294,72,22,100,-254,49,338,102,28,94,-245,37,356,103,35,92,-239,20,336,94,40,88,-231,32,305,78,46,85,-224,11,233,50,51,85,-222,4,150,26,52,84,-222,-2,62,3,53,82,-226,8,-19,-15,54,85,-230,-17,-94,-35,51,88,-234,3,-145,-44,50,87,-239,-10,-176,-61,46,91,-242,16,-191,-57,40,93,-244,36,-192,-48,38,95,-246,10,-180,-53,35,95,-248,34,-155,-39,31,92,-248,18,-133,-40,29,92,-247,23,-119,-38,27,92,-247,20,-112,-37,24,92,-248,19,-103,-35,22,91,-247,25,-97,-27
up,20,91,-248,16,-88,-29,19,91,-249,17,-78,-26,17,91,-248,17,-70,-24,16,90,-249,16,-60,-24,14,89,-249,13,-53,-26,16,92,-256,-4,-40,-29,15,97,-267,11,41,-10,16,99,-271,-8,154,13,18,98,-269,-8,254,44,22,97,-265,-26,331,70,27,95,-260,-17,390,100,34,92,-247,8,413,124,41,87,-237,-2,384,123,49,81,-228,-15,333,101,52,80,-221,-18,263,64,58,81,-217,-2,191,31,59,81,-219,-15,91,9,60,77,-221,5,6,-21,60,77,-226,-25,-72,-63,59,81,-231,-9,-134,-77,57,83,-234,27,-188,-75,53,88,-238,27,-211,-70,49,91,-243,35,-205,-57,45,83,-247,-15,-195,-76,42,89,-247,14,-175,-64,39,88,-249,11,-156,-56,35,87,-249,11,-133,-54,33,86,-249,2,-115,-57,30,86,-248,10,-107,-52,28,87,-248,4,-99,-50
up,26,86,-249,4,-90,-47,24,86,-249,2,-77,-47,22,87,-249,8,-69,-42,21,87,-249,6,-64,-40,22,87,-252,-3,-55,-41,22,94,-265,1,-8,-40,22,99,-273,-11,100,-3,23,98,-273,3,220,34,25,97,-269,0,325,68,30,95,-263,1,407,92,36,90,-253,-7,444,107,42,83,-238,22,438,98,50,80,-225,-6,376,65,56,80,-218,-15,290,36,64,80,-214,8,192,13,61,81,-210,69,91,-3,64,76,-218,-99,-10,-75,64,84,-221,-10,-87,-90,63,88,-224,16,-151,-90,60,91,-232,-40,-191,-102,55,93,-237,1,-189,-95,52,95,-241,9,-183,-87,50,94,-245,-10,-165,-90,48,95,-245,-1,-148,-80,44,95,-245,4,-125,-75,41,95,-245,4,-112,-67,38,95,-246,3,-101,-61,36,96,-245,2,-91,-60,35,95,-246,-4,-83,-56,33,95,-246,2,-74,-54
up,31,96,-246,3,-69,-48,30,97,-246,0,-60,-46,29,98,-249,-8,-47,-44,30,103,-258,-13,-8,-30,31,106,-268,-18,89,-5,32,109,-268,2,210,40,34,107,-266,2,318,81,38,103,-258,26,400,114,43,97,-247,26,440,124,52,92,-232,8,425,122,59,88,-223,-6,351,108,64,86,-216,-7,277,84,69,82,-211,14,186,53,69,84,-209,30,89,24,71,79,-212,23,-7,-33,75,85,-222,0,-117,-64,70,89,-226,76,-168,-61,67,91,-231,62,-189,-71,64,93,-233,81,-202,-67,61,90,-239,2,-220,-85,56,94,-243,31,-198,-72,53,92,-245,45,-172,-63,49,92,-245,44,-153,-60,47,91,-245,27,-137,-61,44,90,-246,34,-124,-53,41,90,-246,34,-109,-54,39,90,-246,28,-101,-53,38,90,-246,25,-95,-49,35,90,-247,27,-85,-46,33,90,-247,30,-75,-40
up,32,89,-247,20,-67,-40,30,89,-247,20,-60,-38,30,89,-249,16,-55,-39,29,93,-256,6,-24,-32,32,96,-268,5,60,-24,32,101,-270,12,171,27,34,97,-271,-5,291,55,36,95,-264,4,393,81,40,90,-252,72,461,83,49,84,-238,68,474,84,58,81,-224,20,407,68,62,79,-216,16,302,51,68,78,-210,28,194,31,70,75,-214,11,84,7,74,72,-219,24,-24,-9,74,73,-226,27,-123,-33,72,79,-231,5,-188,-62,67,82,-238,19,-219,-64,63,82,-243,17,-219,-64,59,85,-245,11,-202,-67,56,85,-247,10,-180,-66,52,85,-248,11,-164,-58,49,84,-248,15,-147,-55,47,84,-247,16,-138,-49,43,84,-249,11,-125,-50,41,84,-249,15,-115,-45,39,84,-249,19,-104,-43,37,85,-249,12,-94,-40,35,84,-249,14,-85,-36,34,84,-249,13,-80,-33
up,33,84,-250,11,-75,-32,31,84,-251,16,-63,-28,31,86,-257,2,-36,-31,31,92,-266,7,34,-14,32,94,-270,-13,141,9,35,97,-271,-57,232,40,36,98,-269,0,344,98,38,92,-260,32,451,126,44,85,-242,66,504,129,56,79,-228,14,450,107,62,76,-218,-8,345,81,69,74,-213,-29,242,48,74,76,-211,22,124,34,74,74,-211,37,25,14,74,70,-216,18,-59,-27,78,70,-227,-58,-161,-97,74,85,-231,-35,-242,-104,64,83,-237,-16,-245,-114,61,88,-242,-36,-229,-126,56,92,-244,0,-214,-108,53,95,-245,-10,-193,-96,48,92,-246,0,-164,-87,45,92,-245,-5,-149,-84,42,93,-245,1,-142,-77,39,93,-246,0,-129,-69,36,92,-246,1,-120,-63,34,94,-246,10,-111,-55,32,92,-247,0,-101,-57,30,93,-247,8,-92,-48,27,94,-247,12,-84,-47
up,27,93,-248,5,-81,-47,24,94,-248,12,-68,-43,23,95,-250,6,-54,-38,23,99,-259,-21,-8,-34,25,105,-269,12,87,-1,27,111,-272,-7,233,54,30,102,-270,36,371,95,34,98,-260,27,464,108,42,91,-245,23,496,106,49,88,-229,-5,468,87,56,85,-218,-22,379,62,62,82,-211,-16,269,25,65,82,-208,-31,144,-17,68,81,-213,-49,26,-49,69,83,-222,-17,-92,-66,68,88,-229,-8,-164,-77,64,91,-235,7,-189,-88,59,93,-235,54,-206,-75,55,92,-237,37,-226,-84,52,93,-242,4,-225,-92,48,96,-244,30,-216,-72,43,93,-247,25,-196,-63,40,93,-247,34,-163,-60,37,92,-246,24,-150,-58,34,91,-247,21,-137,-56,31,93,-247,30,-126,-47,28,92,-247,24,-118,-43,26,92,-247,24,-105,-40,25,91,-249,5,-95,-41,23,91,-249,18,-79,-38
up,21,91,-248,22,-70,-35,19,92,-248,16,-62,-35,18,93,-250,16,-54,-33,19,97,-261,-40,-18,-33,19,105,-271,-55,79,0,20,104,-273,-45,206,44,23,105,-270,-65,317,87,25,101,-261,-27,420,131,30,96,-248,-2,485,148,39,88,-230,-48,473,138,48,88,-220,-33,360,118,53,84,-216,-38,295,76,61,86,-215,-24,206,56,64,82,-214,-2,114,33,65,79,-214,-25,24,-8,69,83,-217,10,-88,-32,66,86,-223,-26,-179,-60,63,90,-231,-33,-226,-81,58,98,-236,12,-244,-79,52,99,-240,23,-243,-66,49,98,-243,-24,-223,-76,45,99,-242,0,-199,-68,41,100,-244,-24,-187,-70,37,102,-243,18,-166,-50,34,101,-243,-4,-152,-54,31,102,-243,2,-141,-47,28,102,-243,3,-132,-41,26,102,-244,2,-116,-42,24,102,-244,2,-104,-36,22,102,-243,3,-95,-33
up,20,102,-244,0,-88,-34,18,103,-244,13,-78,-29,17,102,-244,3,-69,-32,15,103,-244,7,-60,-29,15,105,-248,2,-47,-28,14,110,-257,12,2,1,16,116,-264,6,105,32,17,115,-265,49,225,95,21,112,-261,61,326,139,28,104,-253,66,391,171,32,102,-246,13,417,182,39,97,-238,34,435,180,48,90,-229,24,427,151,57,86,-218,7,372,117,64,85,-210,5,275,81,70,83,-206,24,154,39,64,84,-205,56,40,-7,66,85,-208,75,-79,-35,65,87,-215,18,-179,-63,63,91,-228,25,-228,-72,59,94,-236,31,-232,-64,57,91,-240,24,-219,-82,52,96,-240,30,-212,-74,48,92,-243,38,-199,-62,43,95,-244,45,-175,-53,41,94,-244,28,-155,-55,38,93,-244,27,-144,-49,35,92,-245,24,-130,-46,33,91,-245,29,-117,-43,31,91,-246,21,-107,-44
up,29,91,-246,25,-97,-38,27,91,-246,29,-91,-34,26,91,-247,22,-77,-32,24,90,-248,21,-69,-31,24,92,-253,14,-45,-31,24,97,-263,18,25,-24,29,99,-271,-22,131,-1,28,103,-271,-15,240,54,31,99,-269,-37,341,85,35,97,-260,-22,422,122,41,91,-247,-18,476,134,51,85,-231,8,451,133,58,81,-220,-40,381,96,64,83,-212,-17,298,70,69,80,-210,-11,220,38,69,80,-205,48,125,17,72,82,-206,1,21,-35,73,81,-213,-17,-78,-71,73,85,-219,59,-160,-73,71,87,-226,40,-223,-86,65,92,-234,27,-252,-90,59,93,-238,78,-247,-72,56,91,-240,54,-242,-82,51,95,-242,61,-221,-66,47,91,-245,33,-195,-71,44,91,-245,49,-177,-59,40,90,-245,48,-163,-58,37,91,-246,37,-151,-56,34,89,-247,41,-136,-50,31,89,-247,45,-125,-47
up,29,89,-247,37,-116,-45,26,89,-249,27,-103,-45,25,89,-249,38,-88,-36,22,88,-249,26,-78,-36,21,88,-250,21,-67,-35,19,88,-251,22,-55,-34,20,91,-258,15,-25,-32,20,95,-269,42,80,-19,24,98,-275,27,213,17,26,99,-273,16,342,63,29,94,-266,18,450,102,35,88,-253,28,518,124,44,82,-235,23,519,129,52,80,-224,14,452,112,59,77,-218,-41,381,75,65,76,-213,-14,303,62,72,73,-212,-25,210,28,76,72,-211,1,111,0,80,74,-212,9,15,-37,77,76,-216,49,-75,-64,73,80,-217,91,-153,-70,71,80,-224,31,-225,-93,68,84,-231,43,-255,-88,62,85,-236,53,-254,-87,59,86,-240,12,-249,-97,52,85,-242,8,-240,-91,50,85,-242,29,-224,-88,45,87,-243,31,-210,-82,41,88,-245,30,-195,-71,36,87,-245,22,-171,-69
up,34,87,-245,32,-158,-60,31,86,-246,21,-146,-61,28,86,-247,21,-132,-55,25,86,-247,20,-117,-55,23,87,-247,28,-108,-44,21,86,-248,10,-100,-47,20,86,-252,3,-82,-50,19,92,-263,7,-20,-33,21,95,-270,13,96,-7,22,98,-272,10,212,41,25,95,-270,22,326,85,29,91,-264,26,417,116,36,85,-254,14,479,119,44,82,-241,4,501,116,51,81,-229,36,471,115,60,75,-219,0,411,81,67,74,-212,-16,320,49,72,74,-206,18,216,25,74,75,-204,-26,87,-10,75,77,-208,-31,5,-39,78,77,-213,-35,-72,-62,75,77,-221,-14,-157,-89,74,84,-225,-12,-214,-112,67,84,-228,66,-253,-108,63,89,-232,33,-275,-108,57,90,-237,25,-265,-111,53,93,-242,37,-244,-98,48,89,-245,26,-215,-94,45,90,-244,31,-189,-86,40,90,-243,30,-168,-81
up,37,90,-244,28,-154,-74,34,90,-244,35,-141,-64,31,89,-244,23,-128,-67,29,90,-245,19,-117,-59,27,89,-246,18,-105,-55,24,88,-246,22,-93,-53,23,91,-250,16,-79,-49,24,97,-269,-5,-2,-36,22,100,-276,23,174,0,26,99,-272,12,316,39,30,95,-265,14,417,80,36,91,-254,-4,480,105,44,86,-240,-15,500,118,52,83,-227,13,456,113,59,79,-216,-19,383,84,65,78,-209,-16,288,49,72,79,-207,-4,183,32,71,81,-208,30,84,15,71,76,-209,37,-10,-26,69,77,-210,86,-106,-42,72,84,-217,43,-176,-57,68,78,-226,38,-226,-73,67,84,-235,35,-255,-72,61,86,-240,60,-245,-67,56,83,-240,51,-234,-57,51,80,-241,18,-220,-79,49,85,-244,34,-206,-67,45,84,-245,36,-186,-58,41,82,-246,19,-169,-57,38,82,-246,25,-150,-53
up,35,83,-246,35,-141,-45,32,83,-246,33,-128,-41,30,82,-247,20,-118,-41,28,80,-248,22,-108,-41,25,82,-249,30,-94,-35,25,84,-256,13,-77,-41,26,90,-272,14,20,-30,27,93,-276,27,163,18,28,91,-275,17,287,53,32,89,-270,2,391,84,35,84,-261,14,475,105,44,81,-248,-3,519,111,53,76,-231,25,495,114,60,73,-218,-15,401,87,65,72,-209,-16,305,54,71,71,-208,-17,186,23,74,66,-210,41,55,0,79,71,-212,32,-64,-42,74,74,-220,57,-155,-59,70,75,-224,81,-228,-56,68,79,-229,55,-276,-64,63,82,-237,46,-291,-54,57,78,-242,27,-277,-62,52,79,-242,56,-267,-57,48,81,-244,35,-252,-63,44,82,-246,40,-225,-51,40,80,-247,21,-198,-54,35,79,-246,50,-180,-42,33,80,-247,30,-164,-47,30,80,-248,27,-151,-42
up,27,78,-249,22,-141,-38,23,79,-249,33,-116,-35,22,79,-249,22,-106,-32,20,80,-250,21,-94,-28,18,78,-252,22,-76,-28,19,83,-259,45,-37,-30,19,87,-275,44,77,-9,22,86,-280,24,220,14,24,85,-278,25,355,47,28,81,-271,3,469,68,35,78,-260,0,539,85,42,74,-242,-11,541,99,50,70,-226,1,470,87,57,68,-218,-72,371,45,63,68,-212,-19,278,33,69,64,-210,-11,161,17,71,65,-211,4,43,-16,74,65,-219,-43,-65,-61,71,70,-225,20,-154,-69,67,71,-230,35,-206,-74,64,73,-235,44,-238,-68,60,76,-241,11,-247,-75,57,75,-244,28,-233,-75,52,77,-246,33,-218,-67,48,77,-248,27,-196,-64,45,75,-248,26,-178,-60,41,76,-248,36,-171,-52,38,77,-249,13,-157,-53,35,75,-250,35,-140,-42,33,75,-251,23,-131,-42
up,30,74,-251,18,-115,-45,28,74,-251,29,-106,-36,26,75,-251,26,-94,-36,24,75,-253,27,-81,-31,26,81,-265,-5,-35,-23,25,83,-277,0,88,2,26,86,-279,1,234,36,29,83,-275,5,377,66,35,79,-265,-24,479,93,41,77,-252,-19,513,117,50,72,-234,-33,480,118,57,66,-224,-21,398,95,62,66,-213,-23,311,61,68,65,-208,-4,199,25,68,63,-207,32,63,-6,65,65,-212,14,-60,-63,66,66,-216,27,-164,-82,65,75,-225,10,-230,-92,62,77,-235,-6,-263,-90,56,79,-242,22,-268,-81,51,78,-244,40,-248,-69,47,79,-244,2,-228,-73,44,78,-245,18,-211,-62,40,78,-247,15,-197,-56,37,78,-248,23,-177,-51,34,77,-248,0,-161,-55,31,76,-248,19,-146,-49,28,78,-249,25,-140,-43,26,79,-249,12,-121,-45,24,76,-251,5,-109,-45
up,22,77,-250,22,-92,-41,20,78,-250,26,-85,-37,18,77,-251,9,-75,-41,17,77,-254,6,-57,-39,16,82,-260,20,-3,-29,17,82,-271,21,94,-21,22,88,-278,-20,230,-8,25,90,-276,2,369,58,28,87,-269,-4,477,107,32,76,-257,-2,557,121,40,72,-240,-26,569,108,51,70,-225,-37,505,88,58,67,-212,-30,408,68,64,65,-205,-20,286,41,67,67,-202,1,144,27,73,61,-211,-36,11,-25,74,66,-219,14,-107,-46,72,69,-226,36,-192,-71,63,69,-229,30,-255,-75,61,72,-237,19,-290,-81,56,78,-244,27,-285,-73,53,80,-249,37,-247,-59,47,75,-250,25,-211,-61,44,77,-248,24,-194,-58,40,77,-247,33,-181,-49,38,77,-249,23,-165,-48,35,76,-250,17,-149,-48,32,76,-250,23,-134,-44,30,75,-251,17,-125,-46,28,76,-252,16,-112,-41
up,26,75,-252,10,-97,-46,24,76,-251,18,-92,-36,22,76,-252,14,-83,-36,21,77,-257,5,-70,-35,22,83,-270,13,-1,-28,22,83,-279,28,147,6,26,84,-279,4,277,38,29,81,-275,15,394,80,34,76,-268,-11,487,84,40,71,-254,3,551,90,51,69,-235,-13,548,80,61,67,-221,-24,441,75,63,66,-214,-25,340,42,68,62,-209,24,243,15,73,64,-206,42,123,1,77,65,-209,19,10,-30,78,64,-215,-10,-78,-64,79,65,-224,-4,-170,-95,74,68,-230,41,-242,-93,67,72,-234,35,-285,-92,62,76,-241,21,-282,-89,58,74,-242,21,-261,-97,54,79,-245,28,-248,-79,49,76,-248,17,-224,-73,45,76,-248,24,-200,-65,41,75,-247,31,-177,-61,38,77,-247,18,-165,-58,35,75,-249,7,-152,-59,32,74,-250,22,-132,-54,29,77,-249,28,-121,-47
up,27,76,-249,15,-111,-48,25,75,-251,11,-100,-47,23,75,-252,12,-88,-46,22,77,-254,22,-67,-43,21,82,-266,18,10,-35,24,85,-276,11,135,-11,26,88,-278,24,274,39,29,84,-274,4,408,73,33,79,-263,13,513,94,39,75,-246,3,555,96,50,72,-230,-24,511,95,56,68,-218,-11,421,84,61,66,-209,-19,326,56,68,66,-205,-13,204,25,72,63,-211,-31,73,-5,73,61,-215,-2,-42,-46,72,65,-220,33,-148,-87,69,73,-224,64,-227,-78,65,73,-233,48,-275,-75,60,77,-240,43,-284,-67,54,77,-245,21,-282,-72,50,77,-245,56,-241,-63,48,75,-247,27,-230,-67,42,77,-248,41,-217,-48,38,76,-249,35,-195,-48,36,73,-250,25,-170,-52,33,74,-249,34,-159,-46,30,75,-250,29,-150,-45,26,73,-250,32,-131,-42,25,73,-251,23,-119,-43
up,23,73,-252,19,-108,-40,21,73,-253,18,-93,-43,20,78,-263,14,-53,-36,21,82,-277,26,67,-25,24,82,-283,-11,222,3,26,83,-279,12,371,55,31,79,-272,-14,476,88,35,73,-259,1,548,112,44,67,-240,-26,549,102,52,66,-227,-19,485,91,58,63,-216,-22,394,73,66,63,-209,-23,280,35,70,62,-211,-27,153,16,72,58,-216,-31,25,-16,77,61,-221,6,-80,-47,72,61,-222,25,-176,-63,70,68,-227,77,-248,-50,66,68,-235,-5,-296,-70,62,69,-244,1,-315,-68,54,70,-249,-6,-301,-78,49,70,-250,23,-272,-68,44,74,-249,39,-244,-52,40,74,-249,12,-223,-56,35,71,-251,2,-200,-58,33,72,-250,24,-180,-47,29,72,-250,18,-161,-51,27,73,-251,17,-153,-39,23,70,-251,15,-132,-44,21,72,-251,25,-119,-36,19,72,-251,20,-109,-38
up,17,71,-252,12,-97,-37,16,69,-253,16,-90,-36,14,72,-255,27,-75,-34,13,77,-263,15,-20,-39,14,82,-278,20,105,-17,18,80,-282,7,267,6,20,82,-281,0,413,44,25,77,-273,-28,530,66,32,74,-260,-32,597,87,39,70,-241,-33,615,93,49,67,-223,0,539,89,55,64,-212,-41,425,50,60,63,-203,26,294,37,63,61,-206,35,139,10,66,60,-208,112,-12,3,67,60,-212,64,-125,-22,67,62,-221,32,-213,-35,65,62,-232,22,-277,-39,62,65,-242,38,-303,-37,54,66,-244,77,-292,-24,50,67,-245,32,-273,-28,47,64,-249,33,-238,-27,43,65,-250,33,-219,-32,40,64,-251,34,-200,-29,36,63,-250,39,-179,-23,33,63,-251,30,-161,-24,31,64,-251,25,-149,-28,29,62,-253,23,-141,-26,26,62,-253,20,-127,-28,24,63,-253,28,-115,-23
up,22,64,-255,22,-104,-22,21,65,-264,16,-56,-22,22,67,-275,2,44,-15,24,72,-280,22,176,8,27,71,-282,-14,318,30,30,68,-277,-7,450,57,35,65,-264,-38,549,64,40,62,-249,-31,598,63,52,62,-231,-32,562,65,61,60,-220,-11,468,65,68,59,-211,-23,375,46,74,58,-208,-19,264,26,76,58,-205,12,149,1,75,53,-202,61,8,-24,79,60,-204,40,-131,-50,79,62,-215,-4,-225,-80,74,60,-226,15,-294,-85,69,68,-233,16,-333,-81,61,66,-239,25,-337,-72,56,69,-244,24,-306,-74,52,68,-247,21,-270,-69,48,69,-247,24,-238,-65,43,67,-247,28,-215,-56,39,68,-247,24,-199,-56,37,68,-248,20,-188,-46,33,67,-249,21,-168,-45,29,67,-249,17,-150,-46,27,67,-250,23,-139,-35,25,67,-251,8,-122,-40,22,66,-251,18,-104,-37
up,21,66,-251,12,-96,-39,19,66,-251,16,-85,-34,17,66,-252,11,-79,-34,16,67,-253,13,-69,-32,16,67,-257,10,-60,-35,15,72,-269,27,33,-36,20,77,-280,-1,155,-15,21,77,-282,2,305,26,24,77,-280,-27,446,58,27,72,-269,-31,560,83,35,65,-250,-26,604,82,45,62,-230,-65,556,67,53,65,-218,-54,443,62,57,61,-212,-49,345,37,65,62,-206,-18,213,24,67,60,-207,-39,72,-7,70,57,-212,-4,-60,-31,72,60,-222,-21,-174,-65,68,62,-231,57,-251,-67,60,66,-234,38,-300,-68,58,68,-242,36,-323,-68,52,71,-248,35,-313,-56,47,70,-251,39,-271,-60,41,69,-251,48,-246,-47,38,69,-250,29,-220,-49,33,68,-251,29,-197,-44,30,69,-250,37,-179,-42,27,68,-251,28,-168,-39,25,67,-252,21,-152,-41,22,67,-252,29,-136,-35
up,19,67,-252,31,-125,-32,17,67,-252,24,-111,-31,15,65,-253,17,-105,-32,13,65,-253,24,-94,-32,11,66,-255,22,-83,-31,11,70,-267,16,-37,-27,11,73,-282,29,115,-27,14,75,-284,16,273,9,17,72,-279,-6,412,37,23,69,-266,7,500,67,29,63,-255,-18,529,73,37,62,-242,-30,494,73,45,60,-231,-30,445,67,51,55,-219,-10,346,47,56,56,-212,-1,219,14,57,55,-211,17,83,-13,58,54,-216,60,-46,-30,58,55,-222,35,-152,-64,57,61,-233,19,-208,-74,54,62,-242,25,-225,-67,50,62,-247,43,-223,-63,47,63,-250,27,-208,-62,43,63,-252,39,-178,-50,40,63,-250,37,-160,-45,37,62,-251,28,-148,-43,35,61,-251,28,-133,-40,33,60,-252,25,-128,-37,31,61,-253,20,-116,-36,29,60,-254,23,-103,-30,27,60,-254,20,-96,-29
up,26,59,-254,20,-87,-26,24,59,-255,20,-78,-25,23,58,-255,19,-70,-23,22,57,-256,10,-66,-29,21,58,-257,18,-54,-27,23,63,-270,-8,-15,-23,24,68,-286,-22,129,-3,26,70,-285,-14,288,43,27,65,-279,-25,419,76,32,61,-268,-21,511,94,38,57,-251,-34,565,86,48,57,-234,-45,534,77,55,54,-220,-37,430,64,59,51,-210,-12,325,40,65,51,-205,8,182,13,66,49,-212,-10,38,-28,70,48,-223,9,-101,-48,70,53,-233,55,-193,-54,64,57,-239,88,-236,-45,60,57,-246,61,-258,-37,57,56,-251,48,-246,-46,53,58,-253,51,-218,-43,50,57,-256,43,-192,-39,47,55,-254,44,-173,-36,43,55,-254,43,-158,-35,42,56,-255,27,-147,-33,38,53,-256,34,-133,-30,36,55,-255,39,-123,-29,34,54,-256,29,-113,-29,32,53,-257,25,-100,-29
up,30,54,-257,26,-91,-26,28,53,-257,28,-81,-26,27,53,-257,22,-76,-29,25,52,-258,16,-70,-29,25,53,-261,17,-61,-29,26,56,-274,11,-1,-36,29,59,-289,-20,141,-32,32,61,-290,-32,295,2,35,57,-286,-82,431,18,38,57,-272,-110,526,42,44,55,-254,-93,569,59,52,53,-235,-131,527,59,57,52,-220,-97,427,40,63,51,-210,-77,312,7,70,52,-207,-65,171,-13,69,52,-207,58,42,1,76,50,-211,61,-91,-32,72,55,-222,27,-202,-47,68,60,-232,60,-237,-48,68,57,-242,36,-267,-61,60,63,-244,89,-271,-24,56,59,-249,37,-253,-40,52,59,-249,73,-223,-28,50,60,-250,37,-201,-35,46,56,-252,46,-182,-30,42,56,-252,40,-164,-35,40,57,-251,40,-149,-34,38,56,-253,31,-139,-34,35,56,-253,36,-126,-31,33,56,-254,34,-115,-32
up,30,56,-254,32,-103,-26,29,55,-255,22,-97,-29,28,55,-258,25,-84,-27,27,58,-266,14,-45,-23,27,61,-274,-2,55,-16,31,59,-282,-22,172,-15,36,64,-289,-54,319,6,37,62,-284,-62,471,49,41,57,-268,-59,574,67,48,53,-245,-54,587,55,58,56,-228,-76,510,47,63,55,-217,-57,403,40,68,53,-209,-22,277,21,71,51,-206,-36,136,-5,76,51,-212,-35,17,-35,80,48,-219,9,-110,-52,81,54,-228,2,-210,-81,72,57,-234,34,-265,-78,69,60,-241,17,-293,-65,64,63,-248,18,-281,-53,58,62,-252,16,-242,-48,54,60,-252,10,-208,-51,51,61,-251,8,-183,-45,48,61,-251,15,-168,-40,45,60,-251,21,-157,-33,43,60,-252,9,-146,-36,40,61,-252,21,-132,-32,38,60,-253,12,-120,-36,37,60,-254,5,-109,-39,35,61,-254,17,-97,-30
up,32,61,-256,20,-73,-35,32,65,-265,26,-18,-34,34,70,-279,-7,102,-30,40,72,-284,-23,250,1,41,73,-282,-71,390,42,46,68,-275,-75,518,72,47,64,-258,-61,607,99,52,58,-238,-44,634,90,63,60,-220,-68,576,73,71,59,-207,-43,475,54,80,56,-198,-15,343,30,83,55,-195,-14,210,7,85,53,-198,4,84,-20,92,52,-206,38,-93,-59,83,57,-210,98,-253,-71,80,61,-222,75,-337,-79,75,66,-233,73,-348,-62,74,67,-244,49,-322,-68,66,66,-246,83,-284,-53,63,65,-245,59,-251,-59,58,64,-245,78,-220,-43,56,64,-247,48,-197,-57,53,64,-247,59,-175,-47,50,64,-248,49,-167,-45,47,63,-249,55,-146,-39,46,62,-250,37,-139,-45,43,62,-251,45,-120,-42,41,62,-251,34,-109,-42,39,62,-252,35,-97,-37,38,62,-252,35,-90,-33
up,36,62,-252,28,-88,-34,34,62,-253,32,-81,-29,33,61,-256,25,-73,-30,33,64,-265,24,-26,-25,32,63,-269,47,63,-17,39,64,-277,-13,150,-29,44,73,-287,-55,288,7,43,64,-284,-19,446,47,45,59,-266,-40,562,41,54,57,-245,-43,574,21,65,61,-232,-92,517,30,70,61,-220,-21,428,51,75,57,-210,-56,314,18,77,57,-204,-19,165,2,78,54,-206,-8,12,-24,75,57,-205,76,-145,-33,75,64,-213,-26,-251,-69,72,65,-227,-12,-291,-66,67,71,-235,-2,-295,-54,66,67,-243,2,-292,-65,61,72,-245,1,-257,-63,55,72,-244,46,-222,-43,52,73,-244,17,-200,-48,50,70,-246,5,-184,-52,48,71,-247,24,-165,-42,44,71,-247,27,-151,-39,41,71,-248,22,-136,-39,40,70,-249,10,-124,-42,38,69,-249,21,-112,-37,36,70,-250,16,-103,-34
up,34,69,-250,20,-88,-32,33,70,-250,17,-83,-29,31,69,-251,10,-74,-30,30,69,-252,8,-66,-30,30,70,-254,16,-51,-25,32,75,-263,15,-15,-21,34,81,-282,-20,118,-8,35,83,-283,21,294,51,36,75,-272,-14,446,70,42,70,-255,62,507,81,49,66,-242,9,520,78,57,67,-228,10,456,82,62,59,-218,-17,374,44,70,62,-208,6,243,32,73,59,-210,0,105,16,75,55,-214,38,-30,-6,76,58,-222,29,-139,-56,76,68,-230,70,-215,-44,71,66,-241,97,-248,-21,66,67,-247,80,-230,-13,64,64,-251,55,-198,-33,62,66,-251,72,-171,-20,59,62,-252,52,-155,-28,55,63,-251,64,-143,-18,53,62,-252,46,-129,-23,52,61,-253,44,-117,-24,49,61,-252,46,-104,-25,47,60,-254,41,-97,-21,45,59,-254,34,-85,-23,44,58,-254,30,-79,-26
up,42,59,-254,42,-71,-19,41,58,-254,38,-70,-17,40,59,-255,32,-62,-16,38,57,-256,26,-54,-17,39,57,-257,22,-46,-20,39,58,-260,28,-29,-22,41,63,-280,-9,42,-25,43,68,-288,-9,211,8,43,62,-283,-17,367,27,46,61,-270,-39,472,40,50,56,-254,-24,525,40,58,55,-238,-46,512,39,65,54,-224,-18,429,29,69,55,-211,-12,323,21,71,50,-207,5,183,4,74,45,-209,45,27,-35,80,48,-218,14,-122,-75,82,56,-236,11,-208,-70,77,61,-247,73,-192,-36,78,56,-251,93,-171,-34,74,56,-250,74,-132,-51,73,59,-249,68,-77,-60,74,60,-247,81,-10,-38,78,64,-244,103,-3,2,87,58,-236,79,-73,49,86,57,-240,33,-143,99,80,54,-248,-10,-162,112,75,50,-249,-89,-161,124,65,51,-247,-104,-205,121,49,56,-238,-83,-211,65
up,37,55,-253,-34,-234,81,37,54,-251,-3,-183,25,34,61,-259,0,-226,-23,31,51,-249,-24,-151,-11,27,70,-259,32,-143,-13,21,49,-255,4,-113,-32,22,58,-255,46,-109,-2,21,59,-256,-14,-106,-24,18,58,-257,18,-98,-27,16,52,-256,36,-78,-9,16,57,-257,23,-69,-3,15,55,-257,17,-68,-12,13,54,-258,-1,-66,-16,12,53,-258,0,-65,-20,9,54,-257,2,-54,-17,9,53,-257,10,-46,-17,8,53,-258,7,-46,-14,7,53,-258,5,-39,-9,6,54,-258,-8,-27,-19,5,53,-257,0,-22,-11,5,54,-258,-5,-17,-10,4,56,-257,-3,-20,-13,4,53,-258,15,-17,-3,3,53,-257,26,-12,3,3,51,-259,20,-11,0,3,52,-259,14,-9,-2