Lable,AccX1,AccY1,AccZ1,GyrX1,GyrY1,GyrZ1,AccX2,AccY2,AccZ2,GyrX2,GyrY2,GyrZ2,AccX3,AccY3,AccZ3,GyrX3,GyrY3,GyrZ3,AccX4,AccY4,AccZ4,GyrX4,GyrY4,GyrZ4,AccX5,AccY5,AccZ5,GyrX5,GyrY5,GyrZ5,AccX6,AccY6,AccZ6,GyrX6,GyrY6,GyrZ6,AccX7,AccY7,AccZ7,GyrX7,GyrY7,GyrZ7,AccX8,AccY8,AccZ8,GyrX8,GyrY8,GyrZ8,AccX9,AccY9,AccZ9,GyrX9,GyrY9,GyrZ9,AccX10,AccY10,AccZ10,GyrX10,GyrY10,GyrZ10,AccX11,AccY11,AccZ11,GyrX11,GyrY11,GyrZ11,AccX12,AccY12,AccZ12,GyrX12,GyrY12,GyrZ12,AccX13,AccY13,AccZ13,GyrX13,GyrY13,GyrZ13,AccX14,AccY14,AccZ14,GyrX14,GyrY14,GyrZ14,AccX15,AccY15,AccZ15,GyrX15,GyrY15,GyrZ15,AccX16,AccY16,AccZ16,GyrX16,GyrY16,GyrZ16,AccX17,AccY17,AccZ17,GyrX17,GyrY17,GyrZ17,AccX18,AccY18,AccZ18,GyrX18,GyrY18,GyrZ18,AccX19,AccY19,AccZ19,GyrX19,GyrY19,GyrZ19,AccX20,AccY20,AccZ20,GyrX20,GyrY20,GyrZ20,AccX21,AccY21,AccZ21,GyrX21,GyrY21,GyrZ21,AccX22,AccY22,AccZ22,GyrX22,GyrY22,GyrZ22,AccX23,AccY23,AccZ23,GyrX23,GyrY23,GyrZ23,AccX24,AccY24,AccZ24,GyrX24,GyrY24,GyrZ24,AccX25,AccY25,AccZ25,GyrX25,GyrY25,GyrZ25,AccX26,AccY26,AccZ26,GyrX26,GyrY26,GyrZ26,AccX27,AccY27,AccZ27,GyrX27,GyrY27,GyrZ27,AccX28,AccY28,AccZ28,GyrX28,GyrY28,GyrZ28,AccX29,AccY29,AccZ29,GyrX29,GyrY29,GyrZ29,AccX30,AccY30,AccZ30,GyrX30,GyrY30,GyrZ30
up,-9,39,-260,8,19,-33,-12,44,-259,-1,-4,-23,-11,42,-259,-7,6,-24,-12,43,-263,-20,-11,-11,-11,44,-264,21,-1,-5,-10,48,-267,19,23,-11,-9,53,-295,-28,127,-8,0,74,-342,-18,399,66,-5,71,-352,50,766,161,3,55,-319,175,1081,192,21,43,-255,293,1167,225,41,24,-204,323,1004,206,66,6,-169,130,688,171,79,5,-165,14,321,95,85,2,-167,95,-9,-18,85,-8,-176,-236,-366,-141,63,25,-173,-18,-657,-235,55,29,-190,100,-951,-344,31,32,-242,-236,-984,-265,23,42,-292,-181,-1028,-133,2,56,-319,-60,-801,-46,-9,56,-338,-337,-370,-53,-9,56,-315,-63,-92,-9,-11,47,-282,138,-9,-5,-11,43,-262,48,30,-28,-10,31,-261,2,-6,-23,-10,42,-261,11,-9,-28,-13,44,-261,59,-5,-17,-13,45,-260,18,1,-26,-13,40,-263,-33,13,-25
up,-10,38,-264,9,21,-20,-12,42,-261,10,11,-21,-12,38,-262,-3,-1,-20,-9,45,-259,36,18,-12,-13,39,-258,33,-11,-6,-11,37,-262,-29,-26,-4,-13,37,-269,-52,-4,-28,6,55,-351,-358,42,-19,-13,86,-392,-26,536,97,-12,69,-363,170,1080,190,8,57,-292,165,1264,307,23,39,-225,363,1172,361,58,21,-184,430,948,352,74,-8,-164,228,667,239,86,-2,-143,138,327,41,97,-13,-138,20,-88,-140,95,2,-158,-246,-505,-205,90,1,-206,-126,-848,-220,57,40,-216,-39,-950,-234,43,17,-282,-182,-963,-214,19,59,-296,-44,-874,-192,5,61,-321,-137,-658,-123,-4,49,-314,155,-428,-102,1,60,-304,-74,-260,-58,-11,48,-302,-84,-104,15,-16,39,-277,78,17,15,-6,27,-267,-51,33,-26,-10,40,-258,12,25,-24,-11,37,-259,39,8,-25,-8,49,-259,10,3,-31
up,-8,40,-263,-58,14,-30,-8,36,-264,6,16,-23,-7,38,-262,6,2,-25,-10,41,-264,24,10,-21,-10,38,-262,33,14,-14,-11,39,-259,44,6,-19,-10,46,-268,-21,10,-28,-1,54,-326,-87,105,-40,-2,76,-380,556,368,-3,-4,55,-374,156,967,166,2,26,-316,250,1278,175,34,27,-244,315,1192,143,42,-3,-186,399,883,148,69,-5,-154,244,674,108,94,-8,-151,211,374,46,99,-16,-123,130,-73,-63,101,-7,-145,-335,-496,-152,85,-8,-195,-158,-815,-151,42,25,-217,128,-1043,-249,40,32,-265,-265,-1073,-234,8,42,-325,-398,-924,-136,-3,48,-338,24,-670,-40,1,26,-325,-22,-334,-66,5,28,-322,-143,-147,-92,-9,45,-287,201,-24,-75,-6,33,-274,-30,21,-65,-8,27,-267,74,45,-27,-10,24,-265,-5,31,7,-7,22,-264,-9,19,-18,-7,30,-257,78,23,-7
up,-5,22,-258,-47,-47,-12,-7,24,-263,-57,-58,-6,-14,26,-268,39,-31,-1,-15,28,-266,11,-8,-20,-11,26,-262,35,-5,-21,-12,28,-260,51,-15,-10,-13,25,-260,-53,-30,-31,-10,29,-294,-80,-10,-28,1,67,-387,-266,250,-29,-16,59,-398,316,843,100,-21,34,-324,336,1391,75,6,17,-226,551,1408,19,49,13,-174,256,1073,63,71,-7,-160,264,751,99,98,-11,-151,17,307,46,91,-17,-130,-64,-182,-57,85,-6,-152,-374,-589,-106,65,-6,-214,-616,-932,-87,44,23,-266,-288,-1156,-59,30,43,-292,104,-1148,-71,-2,54,-309,38,-968,-84,-16,51,-318,-93,-665,-76,-32,46,-328,-33,-366,20,-18,38,-315,-89,-183,0,-24,30,-288,130,-37,-9,-17,26,-271,14,29,-53,-21,31,-271,70,28,4,-24,29,-265,59,57,-12,-16,21,-263,8,49,-56,-22,30,-258,63,68,-50
up,-21,32,-255,-7,39,-44,-22,32,-258,-28,-2,-17,-22,29,-261,1,-16,10,-22,26,-262,8,-15,-8,-20,29,-264,26,-5,-18,-22,28,-268,-53,0,-23,-14,35,-297,-84,61,-15,-12,54,-347,12,258,1,-16,48,-377,79,771,95,-14,34,-334,368,1128,133,6,17,-285,255,1360,84,35,20,-222,331,1281,112,65,6,-184,281,1004,125,84,-19,-150,235,653,53,100,-14,-115,15,154,-87,100,-14,-120,-164,-387,-162,77,14,-153,-217,-810,-205,51,1,-210,86,-1177,-167,32,28,-266,-56,-1162,-162,24,30,-303,-141,-1083,-142,9,48,-332,-121,-792,-12,0,27,-332,110,-452,34,-21,37,-303,-143,-149,58,-18,20,-281,33,-72,13,-16,29,-270,23,-45,-40,-15,27,-268,18,-28,-2,-15,23,-268,13,-3,4,-13,19,-266,10,3,-27,-17,24,-263,15,23,-10,-17,21,-262,11,12,-19
up,-17,23,-259,-10,10,-19,-18,18,-263,5,1,-22,-14,25,-265,3,-11,-15,-18,22,-265,14,5,-19,-17,24,-266,-10,15,-13,-16,25,-271,-6,31,-13,-11,32,-313,-124,129,-17,-16,50,-372,-8,476,47,-8,44,-364,-22,993,131,3,33,-312,72,1274,167,20,34,-244,118,1328,174,44,20,-199,89,1110,170,79,13,-161,198,791,161,94,0,-152,205,498,111,102,-11,-129,137,114,-37,109,-8,-147,-206,-415,-140,84,0,-164,55,-785,-156,59,9,-197,164,-1046,-170,40,21,-245,149,-1119,-153,17,26,-290,-98,-1052,-104,15,11,-344,-300,-916,-39,3,44,-330,56,-646,34,-30,29,-318,-176,-232,54,-14,3,-300,71,-169,-49,-16,31,-269,-2,-61,-102,-17,26,-270,36,-32,-47,-21,22,-271,4,-14,-41,-25,16,-272,-83,22,-47,-18,20,-264,26,54,-61,-20,25,-259,8,15,-47
up,-17,20,-260,-27,9,-39,-16,25,-261,25,-7,-16,-21,22,-263,24,2,-19,-22,24,-265,-4,10,-33,-19,24,-266,-35,10,-21,-17,24,-274,-46,37,-14,-10,38,-316,-92,133,-4,-12,54,-362,-3,477,51,-6,56,-365,65,991,157,3,39,-326,35,1310,192,20,26,-260,182,1401,202,39,5,-197,291,1183,158,71,3,-155,141,811,107,103,0,-159,298,492,36,111,2,-145,317,199,-13,115,-15,-148,-9,-264,-85,87,-4,-145,-101,-738,-114,75,7,-172,-36,-1068,-123,51,8,-220,-129,-1195,-84,48,-8,-292,-163,-1260,-60,24,39,-315,-42,-1118,57,4,18,-345,-102,-768,106,-10,23,-325,64,-413,-22,-23,28,-304,-59,-180,-63,-26,18,-292,26,-54,-75,-24,21,-284,-39,33,-62,-26,18,-270,-4,102,-77,-18,23,-257,40,96,-70,-19,20,-254,19,37,-43,-18,16,-259,-10,0,-21
up,-17,16,-264,-13,1,-25,-17,22,-262,73,11,-1,-16,20,-263,30,7,-11,-20,18,-264,26,24,-23,-20,14,-265,-8,27,-28,-16,15,-264,-1,15,-14,-19,10,-263,22,18,-20,-16,19,-269,-41,2,-22,-15,26,-310,-132,66,-8,-7,37,-366,-134,461,-84,-4,57,-368,293,952,57,-1,19,-335,5,1300,129,13,21,-278,239,1418,152,32,0,-192,524,1282,100,64,-30,-128,321,831,9,92,-28,-102,-142,194,-75,103,-21,-119,-257,-362,-171,97,10,-159,-216,-756,-140,71,4,-209,108,-1027,-81,47,7,-248,46,-975,-98,43,13,-294,-293,-847,-117,28,3,-321,-233,-711,-43,10,16,-317,-135,-586,-53,1,18,-316,-84,-390,-74,-8,40,-289,102,-218,-28,-11,28,-275,76,-136,6,-12,23,-275,-20,-62,-31,-14,22,-271,-18,-4,-24,-13,18,-267,3,17,-15,-15,18,-264,44,22,-12
up,-13,19,-261,41,29,-34,-12,16,-261,2,16,-24,-15,22,-260,71,14,-3,-13,19,-261,-47,13,-25,-14,18,-263,35,17,-9,-14,17,-263,-21,0,-11,-12,17,-273,-15,7,-16,-11,29,-302,-54,79,5,-8,28,-339,-180,334,46,-6,45,-342,104,707,109,7,36,-324,172,1018,139,23,26,-284,245,1188,193,42,24,-239,94,1145,235,50,-8,-178,601,903,167,83,-40,-138,134,514,16,89,-19,-117,-179,-104,-59,91,-2,-171,-297,-495,-132,69,6,-197,208,-773,-105,54,-8,-225,-24,-934,-160,46,6,-256,-19,-979,-106,26,2,-304,-237,-917,-15,8,3,-333,-246,-720,22,4,18,-335,-160,-483,28,-2,12,-324,64,-251,-17,-17,11,-288,136,-36,-16,-11,21,-261,55,36,-56,-11,9,-266,-37,40,-76,-8,11,-265,-23,23,-36,-11,8,-267,16,4,-20,-12,7,-262,23,16,-29
up,-11,16,-260,38,16,-38,-9,17,-261,9,-5,-15,-12,14,-264,9,8,-3,-10,9,-266,9,9,-5,-13,13,-261,19,7,-8,-14,15,-261,21,6,-14,-13,14,-265,-9,-6,-7,-10,12,-280,-29,18,-14,-3,23,-318,-80,162,3,-3,28,-364,-75,519,2,4,40,-357,38,947,112,11,18,-309,64,1213,139,24,12,-252,163,1227,155,45,-1,-189,292,1012,93,75,-15,-154,-18,685,30,92,-7,-148,20,279,-67,99,5,-149,101,-18,-155,108,6,-156,-152,-435,-129,90,1,-183,-33,-907,-33,59,-7,-236,-20,-1114,-93,40,15,-294,-89,-1131,-155,14,36,-312,20,-1015,-103,-1,34,-326,-127,-738,-72,-14,34,-333,44,-364,-11,-20,21,-307,-90,-136,-77,-11,38,-276,14,-36,-66,-16,23,-271,33,9,-53,-19,27,-263,72,22,-30,-21,29,-262,6,24,-32,-15,24,-263,-17,24,-18
down,1,88,-252,5,27,-19,1,85,-248,20,1,-3,1,83,-252,19,-13,6,-1,82,-253,21,10,-6,2,84,-255,23,13,-15,3,82,-255,24,14,-14,0,85,-252,31,22,-11,1,83,-255,15,19,-14,1,83,-254,34,14,-9,1,81,-255,-1,22,-16,1,84,-256,26,29,-11,2,81,-255,24,33,-8,2,78,-254,7,12,-7,2,79,-256,45,24,-10,1,83,-251,28,28,-22,1,83,-253,13,10,-8,1,82,-254,27,13,-9,2,81,-254,24,8,-17,2,80,-255,-5,8,-9,1,81,-257,-4,17,-17,1,82,-256,24,19,-15,2,80,-253,9,17,-18,4,80,-255,12,14,-17,3,83,-255,27,11,-22,2,82,-257,-4,-1,-17,1,81,-256,20,13,-15,1,77,-254,32,11,-22,2,83,-254,45,0,-5,1,77,-255,-31,4,-27,2,80,-258,-3,4,-13
down,1,77,-259,5,13,-14,1,79,-253,13,17,-14,2,76,-253,14,21,-10,2,80,-254,16,18,-7,2,83,-254,36,24,-12,2,82,-253,34,30,-8,1,82,-249,13,11,-15,3,82,-252,56,13,-18,3,70,-232,102,-44,-31,-10,50,-185,136,-245,-82,-15,43,-170,-173,-578,-223,-36,51,-210,-143,-912,-215,-61,68,-293,-534,-853,-120,-76,135,-325,-340,-596,-83,-66,178,-452,165,18,91,-45,131,-287,136,87,-32,-54,151,-315,507,504,200,-64,100,-286,7,877,250,-48,89,-249,335,849,320,-33,59,-195,184,781,182,-9,37,-175,20,500,79,9,65,-177,94,78,-24,14,64,-232,-211,-49,-87,11,97,-259,46,-90,-45,9,92,-264,100,-33,-20,7,86,-256,38,-1,-19,5,82,-253,69,-8,-28,2,84,-253,33,-15,-13,3,78,-255,-6,-7,-20,7,79,-258,7,-6,-16
down,5,81,-259,38,0,-20,7,78,-259,-32,27,-35,6,82,-256,60,7,-21,5,81,-250,11,-9,-20,2,82,-250,74,10,-19,3,67,-240,36,-32,-40,-9,62,-203,185,-144,-79,-19,50,-185,17,-354,-201,-30,47,-199,56,-753,-252,-46,70,-256,-20,-900,-264,-57,85,-310,-629,-699,-160,-64,119,-304,-310,-548,-132,-54,115,-324,326,38,-51,-51,128,-259,19,61,62,-68,102,-299,184,376,156,-64,100,-274,117,624,226,-55,84,-249,219,646,200,-29,71,-229,170,617,217,-20,58,-214,199,460,155,-7,63,-208,170,295,76,1,53,-225,-95,135,12,7,66,-243,16,28,-11,7,73,-251,24,-4,-18,5,80,-255,-11,-15,-23,5,80,-257,25,-5,-26,3,81,-256,38,13,-21,2,78,-256,10,35,-8,4,73,-255,8,36,-12,3,75,-255,-23,7,-17,6,75,-256,35,9,-2
down,2,75,-257,-1,13,-21,3,76,-256,33,-6,-13,3,79,-256,-18,20,-17,9,73,-256,-43,15,-32,2,73,-255,49,-1,-9,1,70,-239,46,-14,-33,3,61,-221,-42,-138,-73,-16,61,-194,-121,-373,-156,-27,36,-196,-51,-677,-242,-47,94,-200,10,-828,-313,-66,103,-253,-156,-908,-243,-75,129,-307,-307,-691,-65,-72,111,-373,234,67,-51,-78,102,-282,-202,262,188,-78,88,-311,134,556,130,-60,96,-272,168,754,165,-50,62,-251,83,771,186,-23,66,-210,248,663,151,-12,68,-200,74,409,145,3,63,-206,103,163,76,5,62,-221,-57,14,14,7,78,-238,-56,-56,-3,7,80,-257,-18,-81,4,2,78,-257,12,-43,-18,6,86,-262,5,-23,-17,-1,79,-260,80,17,-23,2,79,-254,-31,40,-41,4,72,-257,-11,37,-28,6,77,-254,19,1,-24,3,80,-258,-12,10,-23
down,3,81,-257,17,8,-14,1,81,-255,22,20,-12,1,83,-254,40,25,-20,4,82,-256,32,18,-8,3,74,-255,23,21,-8,4,71,-242,-7,1,-40,-3,63,-215,36,-111,-78,-22,54,-190,138,-316,-182,-23,52,-200,-54,-559,-268,-42,62,-232,-447,-658,-148,-50,98,-265,-161,-805,-145,-60,111,-303,-324,-621,-136,-74,189,-468,200,67,62,-38,135,-294,127,-7,-11,-54,141,-307,272,351,145,-62,114,-291,118,660,205,-52,94,-264,135,791,250,-37,78,-223,227,747,184,-19,53,-206,211,541,170,0,59,-195,101,296,102,6,61,-206,-5,60,43,4,70,-233,-69,-61,5,2,83,-252,-24,-65,-9,7,77,-258,18,-31,-13,2,87,-259,10,-10,-7,3,79,-259,17,9,-15,9,75,-260,-11,16,-31,10,75,-259,51,15,-23,5,81,-254,41,-2,-11,2,81,-255,9,23,-15
down,5,75,-259,-37,9,-12,4,74,-256,58,16,-9,6,75,-256,28,19,-28,5,80,-255,34,10,-15,5,77,-256,32,26,-22,4,77,-255,8,8,-24,2,69,-236,41,-8,-44,-12,53,-196,33,-123,-139,-23,48,-166,111,-447,-260,-27,70,-191,154,-859,-231,-51,78,-281,-271,-908,-133,-67,93,-312,-313,-648,-82,-64,100,-292,-295,-402,-96,-44,126,-323,253,114,-63,-46,125,-273,-162,24,33,-69,104,-322,252,335,129,-62,97,-298,207,717,155,-47,88,-256,208,845,152,-31,70,-204,91,753,125,-11,60,-185,58,438,87,1,64,-198,117,73,65,1,71,-223,-19,-70,29,2,77,-247,-33,-91,18,3,78,-258,21,-53,10,2,81,-257,45,-6,-11,2,79,-260,21,12,-14,0,73,-257,15,26,-23,4,77,-256,-6,27,-41,3,79,-257,48,16,-23,2,83,-255,46,8,-13
down,1,79,-257,-48,24,-2,2,73,-261,-33,22,-17,4,74,-255,46,16,-11,1,82,-254,53,22,-20,1,82,-257,-51,-4,-23,-3,78,-260,36,30,0,2,75,-250,-10,38,-35,2,72,-230,31,-28,-45,-21,57,-184,3,-213,-109,-36,42,-169,-107,-588,-303,-37,96,-210,-230,-924,-232,-59,111,-287,-214,-900,-136,-70,120,-330,-196,-497,-109,-102,119,-313,-99,394,58,-49,111,-277,-68,-19,-42,-62,131,-309,251,297,73,-64,120,-300,208,695,134,-53,91,-264,205,815,166,-38,81,-209,224,769,190,-24,63,-187,187,442,107,-17,67,-197,51,210,72,-10,63,-222,-4,48,-6,-3,77,-245,-19,-57,5,0,75,-258,-60,-25,-24,3,79,-262,1,-11,-22,-1,80,-258,0,16,-10,-1,78,-257,24,30,-19,-6,77,-253,31,41,-24,2,85,-255,12,23,-22,0,79,-255,-36,14,-18
down,0,79,-257,0,18,-16,2,81,-256,61,17,-12,1,79,-254,47,28,-13,0,81,-251,-17,8,-9,-1,75,-255,4,-2,-10,0,74,-251,33,9,-31,-1,77,-248,29,-27,-24,-4,64,-233,13,-74,-64,-16,59,-199,10,-239,-107,-30,62,-188,-18,-534,-162,-43,68,-219,-135,-739,-218,-62,76,-268,-242,-755,-235,-59,107,-298,-129,-599,-122,-136,106,-479,-252,364,-18,-34,121,-312,-42,29,-59,-55,138,-309,197,308,159,-59,105,-301,122,679,182,-51,90,-266,145,774,216,-46,64,-228,75,745,180,-22,58,-207,25,543,171,-3,68,-199,84,280,107,2,70,-216,66,129,64,8,72,-236,-37,68,-5,8,78,-246,58,24,-24,14,75,-254,-23,-13,-25,13,77,-260,24,-3,-38,10,85,-256,64,4,-26,7,84,-258,-3,30,-17,10,78,-257,34,28,-9,12,80,-256,12,32,-24
down,11,78,-253,10,1,-16,10,80,-255,48,15,-6,8,80,-257,14,18,-30,9,85,-257,37,21,-5,9,79,-256,16,31,-24,8,87,-250,51,23,-2,8,77,-246,47,6,-3,4,68,-229,58,-56,-40,-11,55,-193,122,-171,-129,-16,40,-183,-3,-451,-282,-29,59,-211,-131,-808,-276,-45,74,-276,-75,-830,-227,-57,119,-290,-32,-692,-104,-64,102,-297,-252,-390,-43,-129,72,-393,-185,243,50,-33,117,-286,46,73,16,-63,118,-332,399,562,125,-49,99,-287,96,892,175,-45,70,-245,138,804,222,-31,60,-183,121,612,170,-12,55,-187,-80,237,138,-1,63,-219,19,13,65,-5,69,-238,-14,-30,15,2,76,-252,-30,17,-42,4,80,-257,32,-1,-2,2,77,-255,15,4,-15,2,77,-260,-12,-1,-12,2,78,-258,45,3,-12,4,77,-258,36,16,-17,2,78,-256,19,30,-14
down,2,75,-255,8,37,-14,5,80,-255,0,33,-15,4,69,-255,-20,25,-21,2,77,-251,59,5,-15,7,84,-256,-22,12,-22,2,74,-259,-45,32,-22,4,75,-257,15,26,-12,2,74,-244,67,22,-33,1,73,-234,21,-34,-46,-8,64,-203,90,-194,-77,-25,31,-185,-36,-426,-259,-36,62,-194,-119,-761,-307,-54,74,-255,-294,-889,-217,-66,112,-300,-178,-751,-98,-73,104,-307,-371,-342,-74,-68,100,-338,-97,82,-11,-67,115,-285,-89,113,106,-75,90,-310,279,500,116,-58,99,-275,256,701,162,-43,68,-256,134,755,180,-23,64,-227,242,644,154,-14,63,-212,49,500,130,0,65,-206,55,275,88,5,70,-224,-45,110,55,3,69,-234,4,38,28,10,71,-248,-56,2,-14,9,74,-255,4,-17,-11,15,73,-263,-19,-28,-14,11,76,-259,14,10,-30,12,81,-257,20,32,-21
left,-19,82,-253,16,59,-57,-17,90,-251,13,42,-52,-15,85,-251,11,42,-42,-12,83,-252,26,31,-28,-10,82,-252,-24,13,-10,-16,73,-261,36,23,-13,-26,26,-272,234,47,-96,-48,-30,-282,176,315,-582,-38,-23,-275,-70,646,-1211,-18,42,-255,-115,660,-1393,-13,74,-249,-257,535,-1377,-20,124,-237,-227,449,-1203,-13,145,-230,-106,374,-975,-1,188,-228,-226,272,-564,12,194,-224,110,-17,-84,11,177,-231,-13,-170,381,-10,139,-239,-70,-372,708,-10,133,-236,44,-394,890,-10,96,-250,-114,-472,1022,-10,81,-261,-69,-549,1120,-28,68,-264,-29,-515,1038,-22,52,-264,137,-452,835,-28,49,-258,180,-304,581,-27,44,-263,151,-104,248,-18,64,-256,96,13,28,-12,84,-251,-13,66,-57,-8,79,-258,37,48,-52,-11,90,-248,2,46,-73,-8,89,-251,10,19,-42,-11,101,-248,62,10,-21
left,-8,91,-254,-22,4,-25,-10,87,-256,-38,26,-21,-5,90,-253,49,14,0,-9,92,-249,16,19,-7,-9,90,-247,-25,31,-12,-8,85,-251,25,19,-10,-10,67,-258,57,59,-60,-16,35,-268,100,116,-240,-19,21,-271,150,259,-516,-27,0,-261,-86,399,-943,-30,42,-258,-252,476,-1261,-35,80,-246,-297,587,-1454,-40,121,-233,-417,639,-1449,-9,140,-212,-108,510,-1250,-10,180,-218,-355,340,-897,-2,201,-218,26,137,-428,-1,211,-217,80,-48,130,-1,194,-227,-33,-267,571,-19,167,-232,91,-367,852,-16,149,-222,164,-455,1047,-8,121,-229,161,-582,1201,-27,84,-238,-95,-667,1262,-17,87,-249,6,-721,1052,-39,65,-262,184,-561,821,-42,58,-268,308,-284,508,-29,61,-268,174,-76,179,-20,83,-255,206,15,20,-11,87,-252,185,29,-14,-15,100,-246,115,56,-43,-16,103,-245,64,44,-39
left,-12,99,-244,38,39,-47,-18,93,-244,2,1,-26,-12,96,-252,23,-18,-1,-18,91,-250,-5,1,-15,-12,94,-252,8,1,-19,-16,95,-249,80,-8,4,-14,94,-250,11,-9,3,-15,89,-251,65,3,21,-25,65,-261,90,-23,-22,-37,19,-278,69,204,-337,-33,17,-276,-70,519,-824,-32,37,-261,-147,676,-1222,-45,70,-249,-1,758,-1529,-35,85,-240,-169,770,-1565,-32,125,-231,-102,770,-1455,-6,158,-224,-50,590,-1168,9,195,-212,2,347,-691,29,220,-203,-45,0,8,4,188,-220,-4,-382,719,-8,165,-233,69,-646,1142,-16,125,-246,198,-740,1433,-23,91,-249,175,-769,1478,-37,69,-255,122,-694,1460,-41,49,-259,95,-642,1195,-39,38,-265,32,-475,888,-44,39,-264,95,-236,520,-31,48,-262,16,-85,185,-23,67,-255,9,14,-6,-17,81,-253,14,41,-69,-19,90,-256,13,44,-75
left,-16,91,-253,24,17,-51,-13,91,-251,0,17,-50,-16,88,-252,11,8,-29,-17,93,-255,27,27,-39,-17,91,-251,-27,31,-26,-15,88,-256,4,17,-1,-14,93,-248,38,1,5,-16,81,-253,52,-13,15,-24,37,-263,148,-19,-14,-49,-21,-272,317,194,-522,-54,-12,-272,-252,568,-1161,-48,16,-260,-222,709,-1548,-50,75,-236,-497,729,-1763,-48,121,-236,-844,715,-1689,-21,225,-207,-134,621,-1223,-1,246,-208,24,336,-515,1,226,-200,-76,-150,200,-18,192,-215,7,-365,703,-20,164,-231,176,-524,1040,-24,124,-238,372,-568,1206,-21,93,-247,286,-507,1255,-30,60,-250,280,-527,1235,-36,28,-266,137,-511,993,-31,26,-269,-10,-308,621,-22,31,-267,95,-143,326,-18,57,-258,102,-29,62,-16,73,-254,42,17,-48,-19,82,-254,15,27,-83,-11,92,-252,17,26,-75,-15,90,-249,44,-1,-17
left,-12,85,-255,30,-3,-23,-14,85,-255,40,-2,-29,-19,86,-252,23,37,-31,-18,87,-251,12,3,-11,-15,83,-254,44,-3,3,-15,86,-253,39,12,3,-17,77,-254,1,8,-6,-28,52,-262,51,81,-87,-46,-4,-276,31,343,-489,-43,-10,-274,-141,657,-1142,-24,43,-272,-411,795,-1567,-15,96,-251,-296,739,-1602,-21,134,-229,-45,566,-1474,-22,175,-218,-177,528,-1131,-7,209,-209,-71,277,-609,6,214,-210,76,-79,50,3,194,-224,89,-341,674,-4,160,-229,242,-573,1082,-21,119,-237,405,-677,1308,-30,78,-245,232,-654,1344,-38,63,-261,34,-621,1270,-43,55,-263,77,-543,1069,-38,40,-261,133,-469,784,-41,38,-262,54,-285,454,-37,31,-265,86,-52,156,-23,69,-256,14,38,-12,-21,80,-255,23,47,-51,-24,88,-251,0,36,-47,-25,91,-251,26,34,-43,-22,86,-255,-36,42,-32
left,-23,88,-252,22,13,-13,-25,85,-247,29,23,-19,-24,86,-251,27,23,-20,-23,86,-252,-64,13,-16,-21,82,-254,-3,10,1,-19,83,-254,14,-4,-3,-24,90,-249,35,14,-11,-21,88,-251,11,-8,-9,-36,63,-261,73,45,-56,-61,-12,-279,177,329,-497,-44,-31,-293,-243,663,-1140,-31,27,-271,-256,811,-1542,-29,72,-253,-355,795,-1614,-31,122,-235,-323,681,-1509,-28,159,-219,-306,598,-1253,-16,194,-216,-39,408,-793,2,206,-214,-71,199,-247,9,197,-212,38,-125,421,-2,161,-216,-4,-407,847,-10,137,-227,181,-624,1033,-16,116,-237,183,-653,1251,-20,100,-248,213,-725,1343,-24,63,-254,186,-704,1274,-35,38,-266,91,-600,936,-42,50,-265,305,-428,529,-27,48,-271,84,-156,251,-20,57,-260,45,-39,97,-23,66,-256,110,-20,9,-23,85,-247,-33,0,-12,-24,91,-251,27,7,-16
left,-27,90,-253,30,24,-27,-26,89,-246,12,22,-26,-19,80,-255,-15,23,-49,-25,86,-250,-5,25,-38,-24,91,-249,47,17,-6,-24,92,-250,31,12,9,-26,87,-250,56,22,14,-29,68,-264,-39,94,-71,-29,40,-270,-103,267,-307,-45,2,-269,-344,487,-781,-47,21,-256,-461,760,-1352,-46,73,-256,-401,995,-1664,-39,110,-245,-331,1034,-1751,-17,157,-214,-220,815,-1505,-17,191,-208,-93,523,-1107,-3,205,-203,-18,282,-589,7,214,-197,183,-46,60,11,205,-199,-15,-380,667,-10,179,-214,51,-693,1100,-22,147,-226,153,-819,1368,-24,126,-225,220,-934,1458,-48,82,-247,214,-865,1400,-60,56,-259,275,-703,1081,-52,59,-266,274,-467,647,-40,66,-262,173,-177,291,-30,67,-261,146,-32,65,-22,91,-253,104,1,-19,-22,93,-252,-25,29,-43,-22,102,-249,67,31,-23,-24,99,-246,91,23,-24
left,-24,98,-245,26,20,-20,-25,100,-246,-1,24,-33,-22,95,-250,20,0,-7,-22,98,-248,48,11,-3,-23,93,-248,28,18,-11,-24,93,-249,3,7,-7,-25,103,-250,-11,13,-1,-29,83,-253,60,31,-8,-38,42,-281,-125,261,-231,-51,7,-279,81,554,-802,-54,16,-266,-266,855,-1438,-44,62,-254,-296,1051,-1792,-44,106,-236,-299,1052,-1873,-32,144,-223,-125,925,-1692,-4,194,-207,-98,665,-1224,28,229,-192,7,303,-450,17,231,-190,179,-198,393,7,193,-208,68,-550,995,-1,158,-228,-78,-851,1374,-29,135,-231,127,-977,1620,-32,96,-233,386,-1040,1743,-58,68,-253,103,-969,1440,-58,47,-264,162,-692,1055,-47,58,-263,256,-448,666,-38,65,-258,248,-274,396,-39,71,-255,146,-52,97,-31,84,-251,207,38,6,-26,100,-246,20,33,-24,-28,93,-249,-26,19,-12,-31,83,-252,3,4,-21
left,-25,97,-251,51,14,-23,-29,92,-253,29,16,-16,-26,96,-247,-21,22,-35,-29,95,-245,45,7,-12,-30,99,-244,16,2,-18,-27,96,-250,41,3,5,-26,87,-254,-20,7,-5,-31,77,-257,-17,61,-43,-41,56,-262,9,225,-266,-63,11,-275,-3,594,-826,-65,1,-275,-293,954,-1498,-54,62,-257,-189,1185,-1904,-33,93,-253,-99,1114,-1987,-9,163,-213,34,827,-1585,3,207,-206,-84,419,-986,8,233,-206,77,47,-155,4,192,-218,-15,-299,566,-1,166,-230,80,-541,1055,-21,129,-234,186,-672,1353,-18,110,-237,235,-818,1521,-27,69,-254,146,-883,1554,-49,50,-258,180,-771,1394,-50,35,-261,90,-611,1003,-52,22,-272,-45,-279,550,-38,36,-276,182,-122,148,-26,55,-264,96,31,-11,-22,77,-253,50,34,-55,-27,83,-254,-8,25,-68,-30,83,-255,25,16,-38,-30,83,-257,10,56,-51
left,-25,82,-253,25,36,-45,-24,77,-256,30,41,-44,-24,79,-249,59,37,-44,-24,86,-249,-21,20,-52,-24,79,-256,-27,21,-34,-24,86,-250,28,36,-16,-25,82,-250,33,-1,21,-24,80,-254,-11,-18,33,-25,76,-251,28,-23,49,-27,56,-264,-78,-47,46,-57,6,-280,-135,289,-421,-54,9,-277,-304,677,-1074,-56,26,-267,-242,956,-1591,-39,71,-249,-27,1017,-1777,-31,112,-233,-69,995,-1717,-6,155,-228,37,814,-1441,12,206,-203,60,470,-857,20,215,-204,-1,23,-90,27,186,-221,9,-306,564,4,150,-233,99,-640,1117,-20,109,-250,141,-673,1375,-30,80,-250,307,-662,1513,-21,57,-253,196,-760,1309,-33,38,-257,77,-629,1134,-43,45,-258,47,-550,872,-43,34,-268,57,-391,590,-41,46,-264,-8,-211,301,-34,60,-260,37,-95,126,-31,65,-258,28,-4,0,-29,75,-258,88,54,-64
right,2,81,-255,23,13,-29,3,81,-255,24,26,-42,3,76,-254,-5,10,-28,1,80,-254,20,6,-24,6,78,-260,-45,18,-42,3,77,-254,3,9,-28,2,86,-256,10,16,-30,3,101,-250,-4,25,3,1,132,-250,-81,-11,131,1,166,-235,-27,-84,469,-1,159,-229,138,-305,907,-19,134,-226,221,-489,1226,-24,75,-247,472,-619,1364,-40,46,-253,373,-627,1355,-44,10,-262,194,-599,1167,-48,-47,-289,259,-537,814,-56,-67,-303,3,-120,111,-47,-74,-295,35,326,-592,-40,-23,-279,-68,533,-1087,-39,6,-277,-295,625,-1440,-28,47,-254,-62,561,-1456,-11,84,-233,41,358,-1222,-17,113,-228,-178,235,-981,-18,126,-242,-341,266,-753,1,150,-234,-71,141,-401,1,126,-237,-18,-33,-93,-11,87,-255,-69,-65,-4,-3,78,-256,-21,-29,-21,5,70,-263,18,-44,6,1,69,-261,-21,-1,-6
right,-3,68,-259,15,13,5,-1,70,-258,32,23,-17,-4,74,-254,-4,8,-18,-3,72,-258,-17,23,-26,-1,69,-259,8,31,-14,1,73,-257,1,13,-11,0,64,-259,7,25,-19,2,69,-258,35,18,-23,-1,78,-249,31,14,-2,-1,89,-255,-33,-14,39,17,187,-229,114,-27,285,-8,150,-233,-93,-128,779,-18,147,-241,308,-423,1062,-30,126,-250,350,-318,1196,-25,65,-238,452,-387,1469,-35,3,-267,183,-537,1287,-44,-34,-284,145,-291,886,-21,-13,-278,229,-61,506,-32,-43,-273,273,7,151,-32,-44,-264,-4,193,-419,-25,-44,-267,-175,364,-875,-16,19,-255,-194,368,-1168,-22,6,-272,-210,327,-1361,-20,66,-259,-290,378,-1316,-8,88,-260,-274,329,-1158,13,141,-239,-48,180,-786,3,143,-239,-227,38,-424,4,114,-248,66,-71,-173,-6,98,-254,-79,-1,-115,1,87,-257,88,30,-39
right,3,81,-256,-50,-19,-19,-2,76,-260,36,-23,19,-4,66,-261,-5,-1,3,-1,67,-259,-23,6,-17,1,75,-255,35,19,-20,1,69,-260,5,4,-8,1,68,-261,-36,16,-17,-1,63,-257,27,33,-33,2,73,-256,23,27,-39,1,88,-256,18,11,-7,-12,125,-251,-93,27,118,1,171,-231,-151,-67,437,-5,167,-230,45,-422,976,-26,124,-243,186,-552,1216,-34,73,-252,278,-567,1320,-46,40,-262,205,-521,1192,-44,5,-266,283,-461,940,-42,-16,-280,253,-300,589,-43,-27,-286,102,-40,111,-43,-29,-276,-6,184,-350,-35,-7,-278,-122,417,-826,-38,1,-259,15,441,-1056,-36,37,-247,-284,538,-1207,-31,59,-254,-363,541,-1277,-16,103,-245,-433,515,-1163,-10,161,-236,-497,400,-826,6,158,-238,217,92,-411,1,131,-232,23,-60,-156,-4,104,-248,-5,-16,-63,-1,91,-251,23,-12,-16
right,2,89,-248,117,-16,4,0,81,-252,22,-15,4,1,79,-257,41,-11,6,1,79,-259,19,0,-15,0,77,-256,-30,4,-50,1,82,-256,41,26,-24,-4,78,-257,-2,21,-24,0,83,-256,17,31,-20,2,89,-255,22,30,14,1,95,-254,-44,-13,64,-5,131,-246,8,14,210,0,153,-232,-48,-50,432,-1,164,-229,-217,-259,894,-23,138,-231,204,-518,1205,-39,108,-241,345,-499,1377,-39,71,-241,591,-443,1321,-27,1,-267,254,-487,1150,-32,-32,-284,93,-377,758,-28,-42,-297,22,-87,270,-31,-57,-296,28,138,-231,-33,-37,-278,-182,406,-785,-29,-15,-262,-67,517,-1147,-19,50,-251,-129,577,-1361,-20,79,-260,-114,524,-1322,-7,122,-252,-236,376,-1088,1,133,-251,-159,156,-790,0,135,-241,-97,30,-514,0,127,-240,16,31,-301,1,111,-246,4,6,-157,5,102,-253,95,-7,-27
right,0,88,-255,-100,16,2,2,74,-257,23,-2,3,3,81,-255,-1,-10,-5,1,72,-259,30,17,-18,1,79,-255,20,53,-44,3,84,-252,-42,8,-36,1,85,-253,24,14,-18,5,78,-257,-9,18,-19,2,86,-256,22,12,-11,8,101,-259,-23,4,35,3,120,-254,161,-9,186,1,157,-231,-29,6,376,2,152,-226,85,-238,761,-21,118,-231,-203,-365,1219,-25,104,-245,120,-563,1274,-23,59,-261,214,-622,1311,-30,41,-263,351,-466,1135,-20,23,-276,134,-358,922,-26,5,-269,346,-320,658,-42,-43,-282,-22,-129,177,-42,-49,-290,-123,228,-421,-23,1,-275,28,436,-825,-22,7,-282,-221,504,-1151,-16,22,-269,-209,569,-1260,-9,72,-254,-173,483,-1253,-16,95,-247,-222,414,-1083,-7,125,-234,-126,306,-845,-1,151,-229,-208,235,-611,-1,151,-224,-47,42,-289,1,138,-239,-120,-65,-106
right,-3,114,-255,-46,-57,15,1,93,-255,31,-33,23,3,91,-249,123,-16,43,0,82,-253,-3,16,-11,4,78,-258,35,20,-35,-3,76,-247,22,44,-62,5,92,-251,-56,7,-36,0,89,-254,12,26,-39,2,91,-253,-7,16,-38,3,96,-255,4,37,-9,3,126,-244,54,23,56,3,168,-226,-31,-4,247,7,175,-217,-111,-293,756,-20,140,-238,283,-469,1079,-26,95,-250,494,-450,1208,-34,50,-258,745,-360,1214,-19,28,-250,384,-350,1000,-16,14,-257,155,-355,845,-21,0,-270,59,-302,641,-27,-8,-278,170,-207,415,-48,-43,-289,10,3,1,-38,-33,-286,-93,349,-513,-26,-19,-269,-368,515,-904,-15,43,-252,-196,551,-1002,-18,38,-273,-382,481,-1258,-10,56,-250,18,460,-1177,-5,103,-227,-263,370,-1022,-9,128,-230,-243,238,-835,-9,165,-228,-90,171,-473,-14,125,-239,-115,51,-347
right,0,121,-252,-99,-14,-194,1,96,-258,63,19,-96,6,97,-252,18,14,-49,2,88,-253,49,-4,6,4,84,-251,-2,21,-9,7,80,-257,18,2,-18,2,84,-254,42,31,-21,4,87,-253,5,13,-20,3,94,-251,20,24,-7,5,110,-251,20,13,52,6,158,-240,27,8,251,2,161,-230,-88,-112,575,-6,163,-228,-54,-341,931,-25,128,-234,236,-456,1212,-17,88,-246,348,-498,1243,-24,47,-253,426,-498,1154,-28,20,-262,293,-536,1035,-32,-6,-277,121,-343,726,-34,-33,-283,-6,-108,315,-26,-29,-288,25,61,-100,-25,-10,-277,18,244,-435,-26,2,-267,-34,374,-728,-23,16,-261,-158,436,-953,-15,33,-268,-266,471,-1182,-6,94,-255,-115,541,-1168,-2,88,-256,-48,425,-1074,4,121,-247,-59,265,-874,3,119,-241,-120,123,-634,2,125,-242,-107,4,-430,0,116,-249,-145,-30,-252
right,3,111,-257,-64,9,-153,4,101,-259,70,12,-35,7,88,-257,-7,7,-3,1,85,-248,23,22,-4,5,75,-253,48,3,-10,3,87,-251,-35,-1,-10,4,90,-256,20,-3,18,9,118,-255,-44,-23,133,2,158,-234,-49,-75,412,-1,166,-218,-92,-327,800,-19,147,-232,79,-540,1152,-29,95,-249,-27,-558,1263,-32,57,-262,165,-619,1248,-31,53,-262,156,-491,1067,-25,11,-278,-85,-266,817,-25,14,-271,79,-157,436,-25,13,-281,-74,-17,35,-30,-1,-281,23,284,-436,-29,27,-262,48,477,-867,-25,31,-262,-70,590,-1079,-12,68,-256,-44,632,-1133,-12,85,-249,-226,602,-1164,1,117,-241,-74,431,-1044,9,124,-247,-253,232,-848,7,156,-231,29,127,-544,1,144,-233,63,-18,-248,-5,130,-241,-59,-49,-131,2,113,-252,38,0,-105,10,114,-247,7,-10,-62,0,97,-257,-87,18,-41
right,1,95,-250,98,3,-7,4,101,-251,15,12,-14,2,89,-256,-30,32,-28,6,98,-248,76,21,-17,3,104,-249,60,19,-4,1,97,-250,4,32,2,1,106,-250,-6,12,25,5,132,-249,26,4,139,9,152,-232,-45,-64,345,9,175,-222,37,-300,689,-2,140,-229,32,-472,1051,-16,114,-244,153,-600,1146,-25,79,-253,74,-553,1198,-29,49,-265,8,-499,961,-28,49,-267,188,-361,741,-23,28,-268,217,-234,466,-30,23,-270,77,-3,103,-27,24,-261,37,197,-214,-25,37,-259,158,305,-504,-18,30,-277,-183,450,-882,-15,54,-277,-75,568,-1079,-15,76,-248,0,584,-1168,6,109,-234,-157,528,-1047,2,101,-235,-10,348,-896,6,129,-230,82,264,-686,5,125,-240,-10,119,-514,2,129,-244,-42,-15,-289,0,125,-246,10,-44,-142,0,114,-251,-55,-50,-61,3,101,-256,71,-34,-2
right,-1,94,-252,-40,29,-25,1,91,-254,34,-5,-26,3,89,-253,35,15,-24,1,90,-253,7,13,-2,5,96,-256,29,-5,-15,4,97,-258,-3,36,-9,9,121,-254,100,19,89,3,155,-245,211,25,310,0,150,-243,40,-53,600,-4,143,-229,-55,-199,848,-6,127,-235,-152,-346,1096,-2,103,-247,-98,-497,1160,-9,97,-252,27,-434,1238,-23,46,-263,-27,-405,1032,-22,16,-268,219,-388,757,-26,14,-265,233,-209,358,-24,6,-267,19,52,-117,-31,2,-274,4,309,-527,-23,21,-266,26,521,-891,-12,46,-265,-26,607,-1176,-8,88,-261,21,632,-1327,9,104,-252,185,456,-1274,8,125,-229,158,287,-1037,12,132,-230,-88,122,-726,9,164,-227,28,-17,-399,4,144,-246,-66,-62,-141,-6,102,-264,-71,-55,-43,2,104,-258,49,3,-45,2,87,-253,14,59,-30,4,92,-245,39,24,-20
tiltl,-42,-2,-260,-2,16,-23,-41,-3,-259,-6,22,-10,-45,-3,-259,-4,-1,0,-41,0,-263,-4,5,-6,-42,-6,-260,-18,11,-4,-38,-1,-262,-24,5,-4,-42,3,-259,26,11,-23,-43,-10,-273,-508,149,44,-65,-69,-273,-4895,1256,451,-19,110,-146,-5589,1410,485,28,245,-155,-1143,332,-264,31,265,-136,28,2,-25,18,234,-147,870,-242,30,19,235,-138,3310,-941,-371,-11,119,-197,4006,-1031,-372,-51,-2,-271,2747,-600,-245,-47,-11,-275,1149,-256,-110,-52,-20,-269,245,17,5,-43,-13,-263,73,26,-3,-45,-7,-258,-41,65,6,-46,-8,-262,-226,81,25,-50,1,-258,80,17,-10,-47,0,-259,-6,24,-10,-46,-2,-262,25,9,-15,-46,2,-259,32,18,-22,-46,2,-255,25,11,-11,-46,1,-257,3,31,-12,-43,1,-258,32,29,-22,-42,1,-259,28,14,-27,-44,-4,-261,2,6,-19
tiltl,-43,-4,-257,-11,9,-15,-44,-7,-261,41,7,-17,-43,1,-262,31,3,-16,-41,0,-262,47,22,-19,-45,-1,-258,12,14,-19,-46,-2,-257,17,21,-19,-45,-2,-261,-8,-8,-24,-45,-2,-266,-15,28,2,-55,-29,-280,-727,205,78,-59,-31,-278,-3301,809,276,-45,20,-248,-5528,1422,517,48,265,-116,-2250,553,-27,18,265,-128,-877,199,-77,15,240,-141,233,-68,20,18,246,-126,1569,-434,-116,-6,187,-181,3781,-1044,-317,-31,83,-235,3284,-855,-332,-44,30,-269,1502,-392,-135,-46,13,-278,679,-115,-57,-49,17,-268,168,61,2,-45,22,-260,39,48,-8,-45,19,-257,-50,71,3,-43,30,-255,81,21,-48,-38,22,-259,37,27,-38,-42,23,-257,-3,33,-17,-44,23,-256,-93,52,-2,-45,27,-260,-59,24,-2,-45,21,-261,15,34,-13,-43,25,-260,-12,11,-23,-42,24,-261,12,13,-24
tiltl,-43,28,-259,88,19,-24,-41,27,-256,19,1,-28,-42,22,-263,3,21,-18,-45,25,-259,2,-3,-19,-42,26,-257,33,8,-28,-40,28,-256,33,3,-16,-45,28,-257,54,7,-16,-41,21,-263,1,15,-11,-67,-47,-294,-1540,477,197,-37,57,-253,-3193,828,205,-11,110,-184,-4686,1343,481,32,228,-145,-1357,447,-101,22,261,-132,-968,268,-270,33,275,-115,407,-85,31,34,261,-113,1977,-721,-60,-24,176,-170,4093,-1176,-360,-40,54,-238,3715,-960,-381,-54,5,-277,1926,-423,-124,-57,-17,-276,734,-90,-16,-49,6,-257,-173,97,22,-57,-6,-264,-282,131,19,-44,32,-252,-15,42,-68,-46,9,-260,-175,101,-23,-45,12,-261,-4,27,-22,-45,16,-256,31,36,-28,-47,12,-262,-12,14,-10,-42,21,-262,17,16,-15,-48,18,-260,18,11,-9,-48,17,-260,2,26,5,-46,18,-254,71,9,-12
tiltl,-43,16,-258,-14,23,-8,-45,14,-262,-8,21,-14,-46,14,-261,-54,18,-1,-44,16,-261,65,-20,-22,-44,17,-256,56,9,-18,-45,19,-257,10,-8,-13,-45,16,-262,49,15,-16,-45,12,-263,19,-2,-21,-43,15,-259,62,-3,-30,-47,7,-265,-385,111,2,-52,8,-273,-3904,940,237,-32,68,-217,-5077,1509,469,41,248,-124,-1622,434,-106,23,258,-126,-1120,170,-231,13,265,-122,225,-72,47,18,247,-127,1325,-407,6,-9,198,-163,3924,-1032,-377,-19,109,-200,4613,-1141,-438,-54,1,-281,1839,-425,-144,-56,-4,-274,444,-56,-3,-46,15,-266,231,-2,-18,-52,3,-264,-31,77,0,-52,8,-259,36,42,-43,-49,9,-253,-66,44,-21,-50,16,-257,-205,68,5,-49,29,-254,88,-5,-49,-46,17,-259,17,31,-32,-47,14,-258,-11,30,-9,-45,15,-260,1,23,-18,-47,17,-254,68,22,-24
tiltl,-47,9,-263,-46,18,-7,-48,21,-257,25,22,-26,-46,12,-262,-20,19,-14,-48,16,-260,14,14,-17,-48,21,-256,55,-4,-35,-47,12,-259,-8,7,-19,-46,12,-258,-3,11,-11,-46,9,-261,-60,19,-18,-61,-25,-295,-2147,551,204,-40,64,-238,-3873,1036,243,25,218,-152,-4313,1158,341,11,207,-140,-1136,245,-69,6,266,-136,-558,161,-162,18,266,-124,304,-36,-11,31,267,-111,1809,-579,-78,-31,177,-169,4368,-1142,-380,-47,32,-245,3827,-918,-395,-54,4,-277,1286,-271,-148,-48,20,-272,-6,37,11,-43,33,-265,38,51,-11,-45,26,-264,17,53,-23,-49,27,-256,48,56,-32,-42,29,-255,59,32,-46,-45,26,-258,-39,19,-30,-42,39,-255,-33,19,-3,-44,39,-252,93,5,-5,-44,28,-261,24,7,-4,-45,28,-261,26,14,-13,-41,24,-258,2,-6,-29,-41,28,-256,65,-1,-30
tiltl,-42,29,-254,52,4,-23,-47,35,-255,30,2,-27,-46,36,-260,18,14,-22,-45,30,-256,29,18,-8,-45,25,-263,-56,-4,4,-48,28,-260,65,22,-25,-45,33,-255,0,18,-18,-48,22,-271,-535,146,37,-54,23,-264,-1955,546,155,-31,63,-253,-4305,1199,426,41,264,-109,-2924,826,133,11,228,-157,-915,366,-115,22,251,-127,-184,131,-83,35,255,-124,1018,-358,120,12,234,-123,3434,-1138,-300,-28,105,-212,4344,-1103,-381,-49,18,-268,2580,-600,-291,-54,-8,-276,918,-116,-99,-48,-6,-262,70,32,-13,-51,-1,-265,-178,98,1,-44,20,-254,-137,45,-12,-46,16,-257,-263,45,1,-47,14,-262,19,22,-17,-48,26,-258,-11,21,-32,-48,28,-259,70,20,-48,-46,22,-258,1,21,-35,-46,22,-255,114,19,-34,-42,22,-256,-5,12,-22,-44,19,-259,40,5,-3,-45,23,-257,38,-1,-19
tiltl,-40,18,-262,32,4,-19,-43,19,-260,44,6,-14,-45,23,-256,44,2,-20,-46,19,-260,25,18,-7,-48,16,-258,27,11,-21,-47,20,-257,41,13,-31,-45,16,-260,-40,6,-19,-52,1,-282,-767,222,72,-40,33,-258,-2831,678,195,-42,47,-198,-5532,1432,574,28,242,-135,-1900,464,-63,14,265,-135,-920,175,-118,11,264,-127,217,-103,55,24,251,-126,1893,-639,-64,-29,172,-181,3905,-1059,-330,-47,63,-237,3666,-833,-397,-51,25,-264,2437,-458,-299,-59,-20,-276,328,30,-59,-51,18,-256,-128,41,-45,-50,13,-259,-226,95,-31,-49,13,-263,-87,35,-15,-49,22,-257,-39,24,-22,-48,17,-259,32,29,-2,-49,20,-257,-128,43,3,-50,28,-252,88,5,-24,-46,23,-255,45,4,-19,-45,21,-256,28,-2,-16,-50,8,-260,25,6,-12,-47,17,-262,29,1,-24,-48,17,-259,21,5,-28
tiltl,-48,22,-258,48,2,-25,-49,19,-259,-24,20,-14,-51,19,-256,42,-7,-16,-51,20,-260,14,5,-16,-49,16,-257,41,12,-3,-47,15,-258,30,-3,-22,-46,15,-259,49,7,-13,-49,21,-256,6,-4,-27,-46,15,-261,5,22,-15,-57,-7,-271,-569,180,40,-50,19,-263,-3139,807,178,-51,21,-231,-5807,1658,596,49,289,-93,-1664,466,-184,19,273,-127,-863,227,-148,18,256,-121,518,-153,81,26,267,-117,2120,-768,-127,-28,175,-186,4083,-1201,-360,-48,51,-245,3437,-825,-320,-54,7,-272,2062,-419,-224,-53,-10,-273,542,-49,-80,-50,15,-255,54,32,-42,-57,0,-258,-316,126,1,-55,3,-258,39,53,-35,-55,14,-253,11,18,-24,-51,15,-258,31,27,-20,-53,5,-259,-7,20,9,-53,5,-263,90,2,-19,-47,9,-257,75,20,-12,-46,17,-251,108,7,-24,-55,3,-255,10,13,9
tiltl,-52,6,-256,43,-3,-22,-48,6,-256,32,1,-29,-50,9,-257,41,-2,-23,-53,10,-255,15,10,-10,-54,14,-256,-151,31,-7,-55,3,-261,110,-5,-13,-53,9,-256,16,-5,-23,-53,1,-260,26,14,-15,-52,8,-260,29,-7,-22,-53,6,-260,40,17,-13,-56,2,-259,-13,20,-9,-59,0,-261,-409,98,19,-73,-37,-281,-3655,959,304,-51,32,-204,-6226,1760,636,50,304,-105,-1154,287,-90,26,248,-134,-239,46,-22,10,228,-151,137,-78,-23,21,265,-130,1596,-464,-155,-5,185,-173,3279,-887,-332,-39,77,-244,2790,-699,-298,-46,50,-264,1798,-388,-266,-45,36,-262,1398,-289,-188,-54,3,-271,267,20,-40,-49,23,-255,43,47,-38,-47,16,-255,-80,74,-9,-48,13,-256,-72,24,12,-49,15,-256,-38,22,-8,-49,10,-259,-213,73,27,-47,35,-252,144,-17,-26,-45,19,-262,-73,43,11
tiltl,-49,29,-257,189,-18,-29,-43,21,-259,5,13,-6,-45,17,-258,-9,14,-20,-49,17,-257,25,19,-20,-52,22,-258,-21,12,-23,-47,21,-259,31,3,-29,-45,21,-257,47,13,-19,-47,20,-258,3,-9,-13,-47,22,-260,40,21,-12,-49,22,-260,-16,20,-10,-48,17,-259,-246,77,14,-49,19,-264,-636,168,66,-39,44,-259,-1211,259,84,-38,62,-260,-2150,573,187,-43,69,-234,-3503,1007,397,23,228,-142,-2397,622,182,6,211,-164,-416,187,19,16,224,-157,404,-76,-50,28,238,-144,2496,-705,-294,-17,135,-200,3815,-1034,-407,-41,43,-267,2625,-670,-253,-48,28,-270,1040,-276,-101,-48,11,-267,292,-29,-27,-48,18,-259,-99,85,6,-47,18,-255,-258,116,42,-49,20,-257,-77,62,19,-41,31,-256,56,17,-26,-41,25,-256,-52,28,-12,-44,32,-255,24,9,-16,-42,26,-259,-112,39,-6
tiltr,-41,-17,-255,46,13,-14,-40,-22,-259,26,10,-21,-40,-24,-261,34,13,-23,-41,-23,-260,-3,15,-28,-38,-24,-261,-22,8,-10,-40,-18,-257,6,13,-6,-41,-16,-254,31,0,-12,-40,-19,-258,12,-12,-6,-39,-19,-261,65,6,-6,-18,44,-217,3085,-997,-466,-58,-52,-129,8473,-1788,-1474,-80,-368,-20,6566,-1318,-1457,-59,-326,40,2876,-398,-627,-34,-258,70,324,177,35,-35,-288,74,-1314,452,373,-46,-312,34,-3705,881,717,-84,-328,-43,-6149,1505,986,-53,-165,-125,-6509,1621,824,-6,24,-202,-2573,811,198,-15,15,-230,-1214,390,171,-26,5,-251,47,15,-56,-27,-5,-258,103,-70,-19,-30,-12,-265,106,-53,-9,-29,-15,-266,98,-28,-38,-25,-16,-263,193,-51,-28,-30,-27,-260,33,-9,11,-33,-22,-260,65,-26,4,-37,-34,-262,3,3,9,-35,-27,-261,43,-5,-8,-33,-26,-260,8,5,-17
tiltr,-33,-23,-257,16,-3,-12,-36,-22,-260,29,2,4,-39,-22,-258,12,2,-10,-35,-26,-261,0,17,-16,-35,-26,-258,52,3,-20,-34,-25,-259,74,-12,-19,-31,11,-237,2206,-663,-364,-32,-37,-198,4304,-1299,-707,-48,-233,-95,6037,-1342,-1038,-56,-276,-17,5251,-1242,-1062,-56,-334,23,2753,-547,-554,-40,-274,68,726,-48,-59,-40,-248,74,-312,186,109,-46,-316,64,-1705,422,289,-53,-291,27,-3775,943,604,-73,-317,-37,-6248,1586,1032,-47,-154,-133,-5095,1174,590,-26,-35,-208,-2638,779,188,-22,-21,-241,-816,350,0,-34,-25,-258,-545,139,39,-30,0,-261,-247,13,-2,-33,-5,-265,76,-39,-38,-28,-4,-262,117,-28,-30,-39,-30,-262,102,5,15,-32,-14,-256,221,-61,-19,-32,-15,-257,-32,8,13,-35,-28,-260,21,5,1,-35,-26,-258,-44,32,-2,-36,-24,-260,31,2,-34,-35,-23,-259,-2,22,-28
tiltr,-31,-18,-261,32,3,-30,-34,-20,-259,15,7,-15,-32,-19,-258,60,5,-17,-34,-20,-259,13,0,-5,-37,-28,-257,42,14,-8,-37,-24,-261,67,-5,-23,-32,-14,-256,249,-66,-47,-29,-3,-240,1945,-595,-282,-49,-61,-215,2907,-946,-380,-62,-126,-169,5001,-1252,-764,-62,-222,-35,7025,-1624,-1313,-61,-348,41,3654,-706,-746,-48,-278,70,842,-34,-89,-38,-258,84,-505,218,133,-46,-315,69,-1750,428,279,-70,-314,12,-4482,1139,671,-67,-278,-42,-7018,1713,1048,-60,-130,-159,-4772,1300,406,-19,-19,-218,-2064,735,65,-26,-26,-247,-470,282,-42,-24,-19,-254,-211,34,-27,-28,-24,-261,-66,-30,-31,-35,-33,-267,148,-43,-5,-27,-25,-260,71,-17,-15,-33,-38,-260,9,21,7,-32,-32,-257,72,-2,-12,-33,-39,-258,-12,24,-4,-32,-38,-259,1,10,-9,-30,-34,-259,68,-13,-14,-31,-26,-255,38,-11,-8
tiltr,-35,-39,-260,-70,20,12,-31,-37,-261,62,3,-22,-32,-33,-257,1,8,-6,-32,-35,-261,42,2,-13,-32,-31,-257,84,-7,-23,-30,-26,-258,304,-81,-42,-33,-28,-251,287,-110,-31,-22,-18,-223,2893,-1024,-414,-54,-93,-118,6257,-1734,-964,-71,-261,-33,6771,-1737,-1213,-59,-274,58,5024,-1147,-944,-31,-275,72,272,82,-11,-38,-299,101,-504,228,95,-42,-313,74,-2749,649,441,-72,-321,17,-4981,1265,751,-73,-283,-68,-7103,1772,1035,-47,-84,-159,-5389,1550,701,-40,-9,-224,-1227,558,132,-17,11,-241,-329,228,-33,-23,2,-252,-60,25,-28,-30,-9,-263,106,-28,-46,-23,0,-261,214,-88,-61,-28,-21,-265,-29,-13,4,-26,-17,-263,86,-31,-9,-33,-21,-262,21,0,-13,-30,-18,-259,49,2,-34,-31,-21,-263,43,18,-33,-32,-21,-259,33,9,-33,-32,-20,-261,63,-8,-34,-32,-20,-260,39,9,-26
tiltr,-32,-19,-259,17,12,-11,-33,-19,-260,43,-5,-6,-30,-18,-261,129,-31,-16,-31,-22,-256,430,-121,-57,-34,-29,-255,542,-181,-60,-37,-27,-236,2692,-785,-399,-46,-85,-207,3198,-993,-500,-64,-179,-128,5019,-1188,-783,-76,-273,-27,5199,-1185,-872,-49,-254,45,4354,-909,-759,-55,-333,72,642,32,-93,-39,-273,103,-206,147,83,-57,-313,65,-2518,553,359,-68,-316,24,-4566,1152,661,-69,-269,-39,-6185,1523,870,-70,-187,-163,-5142,1361,491,-10,4,-195,-2944,933,222,-17,5,-234,-531,252,17,-26,5,-254,-240,66,5,-30,-15,-263,43,-36,-32,-25,-6,-261,117,-40,-39,-30,-34,-263,141,-35,-23,-32,-27,-261,41,4,-2,-29,-19,-259,201,-53,-41,-29,-21,-261,-5,12,-10,-31,-31,-260,-7,19,-11,-33,-25,-258,68,12,-29,-30,-21,-258,23,16,-37,-32,-30,-260,19,0,-30,-30,-25,-259,25,9,-25
tiltr,-31,-29,-259,13,-2,-22,-33,-29,-260,31,-10,-19,-33,-27,-258,75,-19,-20,-34,-31,-261,2,9,-5,-35,-30,-262,57,3,-8,-36,-31,-261,-17,29,5,-30,-23,-257,261,-62,-37,-22,-11,-238,2242,-737,-314,-41,-95,-206,3526,-1111,-479,-62,-158,-121,5726,-1462,-908,-73,-265,-32,5998,-1490,-1035,-63,-356,74,3431,-739,-586,-41,-253,99,223,108,49,-42,-277,88,-901,345,216,-59,-304,53,-2980,790,379,-86,-333,-15,-5544,1486,778,-58,-205,-89,-6344,1636,832,-48,-96,-169,-3878,1283,437,-25,-17,-218,-1748,727,181,-17,-17,-248,-257,198,-117,-15,2,-254,54,-8,-86,-27,-23,-261,110,-66,-28,-28,-25,-261,162,-70,-19,-29,-33,-261,30,-12,-15,-27,-29,-261,147,-31,-39,-23,-29,-258,-43,23,-2,-26,-28,-259,51,-8,-11,-28,-34,-258,17,13,-8,-30,-39,-259,-20,12,-13,-28,-33,-262,-17,-1,-17
tiltr,-28,-34,-259,12,4,-15,-27,-30,-259,-14,7,-14,-26,-30,-259,7,2,-18,-26,-31,-260,9,3,-18,-28,-32,-261,-8,21,-13,-27,-29,-262,59,15,-14,-26,-22,-253,128,-23,-30,-8,16,-230,2677,-901,-421,-39,-91,-175,5535,-1629,-865,-62,-262,-18,6996,-1781,-1203,-58,-292,25,4904,-1166,-824,-58,-358,55,1227,-72,-132,-38,-273,90,-141,225,87,-36,-295,96,-1232,356,209,-55,-301,55,-3325,847,422,-77,-319,-16,-6352,1670,911,-50,-174,-119,-5741,1469,724,-32,-67,-187,-3183,1020,383,-9,4,-233,-1173,426,84,-27,-49,-256,-663,213,58,-25,-24,-262,-71,25,-51,-21,-12,-257,123,-37,-63,-25,-26,-263,207,-41,-53,-23,-21,-260,124,-39,-35,-28,-43,-261,9,2,6,-28,-33,-262,116,-25,-12,-26,-32,-256,56,2,-22,-26,-42,-261,16,4,-21,-26,-36,-261,12,13,-21,-28,-33,-258,43,-7,-28
tiltr,-27,-35,-260,-13,12,-16,-26,-41,-261,-26,22,-11,-29,-37,-259,15,11,-16,-28,-41,-257,-32,19,-11,-27,-39,-258,26,12,-14,-24,-27,-252,309,-109,-53,-25,-25,-214,3415,-1081,-523,-38,-104,-144,5145,-1514,-837,-60,-266,-58,6648,-1611,-1090,-66,-312,23,4187,-845,-658,-56,-318,67,1647,-219,-177,-32,-265,103,266,87,40,-29,-283,93,-1386,383,234,-55,-305,53,-3321,974,493,-66,-317,-10,-5737,1300,812,-58,-212,-100,-6701,1727,927,-25,-39,-182,-3723,1182,382,-23,7,-228,-735,419,-51,-16,-8,-249,-357,166,-33,-26,-21,-262,-300,74,-37,-24,-11,-264,216,-37,-100,-16,-8,-260,103,-18,-55,-23,-18,-261,40,-13,-20,-24,-23,-260,86,-38,-6,-20,-19,-262,38,-11,-7,-24,-19,-259,79,-23,-19,-23,-26,-260,39,-13,-7,-27,-27,-260,-5,1,2,-27,-22,-261,11,-12,-16,-25,-22,-262,28,1,-19
tiltr,-26,-27,-259,21,8,-10,-23,-21,-259,72,6,-25,-27,-28,-256,-19,18,-6,-27,-26,-261,37,2,-16,-25,-22,-257,166,-19,-22,-16,0,-245,1736,-571,-279,-30,-71,-201,3661,-1215,-528,-56,-127,-128,6891,-1680,-1135,-68,-307,-15,5401,-1354,-948,-52,-264,67,4081,-852,-604,-32,-260,93,589,21,-57,-26,-266,98,-378,194,80,-51,-319,79,-2612,752,407,-70,-334,24,-5637,1433,820,-65,-275,-44,-7727,1964,1123,-15,-49,-148,-4674,1319,578,-27,-53,-242,-897,495,-60,-8,16,-243,-255,131,-43,-27,-27,-263,-260,47,16,-27,-12,-263,161,-76,-78,-23,-22,-265,-39,0,-31,-23,-26,-262,2,-10,2,-25,-24,-263,14,-4,-9,-29,-35,-260,-56,31,1,-28,-27,-261,33,6,-25,-24,-20,-256,74,-4,-34,-26,-26,-258,-9,-9,-25,-31,-25,-261,73,-5,-13,-28,-30,-264,-2,14,-12,-30,-31,-265,48,4,-16
tiltr,-26,-27,-261,109,-11,-36,-26,-27,-259,48,-1,-26,-27,-27,-259,97,1,-23,-28,-27,-258,297,-60,-50,-15,0,-241,1864,-583,-304,-39,-98,-232,1584,-557,-167,-45,-93,-158,4864,-1493,-778,-55,-219,-22,7645,-1904,-1364,-62,-313,15,3906,-965,-762,-47,-338,61,1060,-111,-101,-40,-279,78,-879,402,214,-57,-309,43,-2804,839,439,-77,-324,-17,-5179,1437,787,-64,-238,-81,-6270,1694,870,-42,-102,-158,-5082,1589,679,-5,-9,-230,-830,509,-117,-10,-14,-245,-167,151,-82,-24,-42,-256,26,14,-43,-25,-26,-258,174,-69,-92,-24,-33,-260,138,-71,-65,-21,-34,-264,29,-58,-15,-21,-31,-262,38,-29,18,-30,-41,-263,-40,27,24,-29,-45,-259,12,31,-31,-23,-38,-257,-9,20,-33,-26,-43,-259,1,12,-19,-25,-38,-262,88,-2,-26,-26,-33,-258,89,7,-24,-25,-37,-257,10,10,-12,-28,-39,-258,16,9,-2
idle,-7,66,-255,1,17,-18,-8,66,-254,-9,14,-10,-10,64,-255,-1,26,-14,-8,66,-256,-10,0,-13,-8,68,-253,46,13,-16,-10,67,-252,16,-5,0,-11,67,-258,11,-6,-21,-7,70,-259,11,24,-3,-8,69,-253,10,19,23,-12,64,-250,50,20,26,-8,61,-253,-15,14,-12,-7,64,-254,14,1,-26,-7,66,-256,11,-7,-30,-10,70,-256,26,17,-21,-9,68,-256,15,29,-7,-7,68,-255,2,14,-10,-6,68,-251,23,30,-12,-7,64,-254,-11,0,5,-8,65,-256,9,6,-22,-7,67,-255,46,11,-27,-7,65,-257,36,-2,-7,-9,67,-257,61,20,-25,-3,65,-255,9,3,-10,-9,69,-256,35,19,-23,-8,66,-256,-16,26,-8,-10,63,-257,10,21,-11,-9,67,-255,2,8,-15,-9,67,-253,14,11,-10,-8,66,-255,16,13,-7,-6,66,-256,22,16,-5
idle,-12,66,-258,13,7,2,-8,64,-257,20,20,-7,-10,64,-255,17,18,-8,-8,64,-254,9,5,-14,-8,66,-255,-3,7,-7,-9,62,-256,9,2,-11,-10,66,-259,1,15,-13,-9,64,-257,20,18,-7,-6,65,-255,-2,21,-24,-9,64,-257,18,15,-11,-8,66,-255,22,19,-21,-9,65,-254,-1,11,-10,-11,66,-254,18,16,-3,-10,63,-254,-10,9,-10,-9,64,-257,1,0,-10,-9,64,-258,14,5,-13,-11,64,-256,10,6,-10,-9,65,-257,17,-1,-7,-8,63,-256,5,7,-12,-8,63,-257,8,-3,-10,-11,67,-256,14,2,-21,-8,65,-252,20,10,-9,-8,61,-255,0,-2,-21,-9,64,-256,20,12,-19,-12,67,-255,39,26,-22,-10,67,-255,6,20,-19,-11,67,-255,13,23,-14,-10,61,-255,-2,-2,-13,-11,67,-255,11,6,-33,-11,65,-256,26,6,-18
idle,-9,65,-256,18,11,-26,-11,64,-256,4,3,-13,-12,65,-256,17,26,-17,-11,65,-255,33,23,-17,-9,66,-253,21,15,-15,-11,66,-257,11,-7,-16,-10,65,-256,23,10,-11,-11,65,-257,17,10,-7,-12,66,-257,30,15,-5,-8,64,-256,19,12,-6,-8,63,-254,11,-5,2,-12,63,-257,14,13,-29,-9,63,-256,27,17,-13,-11,64,-256,1,5,-16,-10,67,-257,14,14,-15,-11,67,-254,21,18,-12,-10,64,-254,18,16,-7,-11,64,-255,-9,13,-15,-9,65,-257,16,17,-18,-8,67,-256,4,22,-12,-11,66,-255,10,23,-18,-10,65,-255,8,22,-18,-12,64,-253,1,7,-11,-9,67,-256,2,14,-27,-9,67,-255,25,23,1,-10,62,-255,10,8,-15,-10,65,-256,0,11,-22,-9,67,-257,8,13,-6,-11,62,-258,15,10,-13,-10,65,-255,14,20,-18
idle,-11,64,-256,19,12,-9,-11,65,-254,15,14,-18,-9,65,-255,19,10,-4,-10,62,-258,9,-5,-10,-8,65,-258,27,13,-16,-10,63,-253,11,9,-12,-12,60,-257,-3,16,-33,-12,63,-256,8,10,-25,-11,64,-257,-2,15,-20,-9,62,-258,9,10,-13,-9,66,-254,8,20,-16,-8,65,-255,6,21,-24,-10,64,-253,-3,22,-24,-10,66,-254,-1,3,-19,-14,66,-255,6,19,-25,-10,65,-256,15,14,-16,-11,65,-255,11,17,-20,-10,64,-254,9,10,-15,-10,64,-254,2,8,-30,-10,65,-253,24,15,-19,-11,63,-256,9,13,-24,-13,67,-256,36,21,-7,-11,66,-255,-8,16,-16,-12,63,-256,-1,25,-3,-12,65,-254,26,22,-5,-13,67,-255,19,22,-19,-8,65,-254,16,17,-6,-11,62,-255,-8,12,-18,-9,64,-257,11,10,-20,-8,66,-256,23,10,-22
idle,-10,64,-256,-7,1,-6,-13,63,-257,4,13,-20,-11,64,-253,21,20,-22,-10,65,-255,4,10,-22,-10,67,-256,14,18,-17,-12,63,-254,12,7,-13,-11,67,-256,-16,3,-22,-11,67,-259,-6,27,-1,-11,63,-255,10,10,0,-9,61,-254,15,18,-18,-10,62,-255,1,3,-24,-9,65,-257,24,16,-17,-10,64,-257,17,18,-16,-12,66,-255,8,11,-15,-10,64,-254,5,17,-20,-13,64,-255,7,16,-17,-9,65,-256,3,20,-20,-12,67,-254,10,16,-12,-10,64,-256,3,17,-11,-9,66,-255,7,22,-9,-11,63,-255,-11,-12,-7,-10,69,-257,11,13,-9,-11,64,-260,13,10,7,-10,62,-257,14,20,-8,-9,65,-254,6,15,-18,-8,63,-252,3,11,-18,-11,64,-254,16,5,-18,-10,66,-256,11,2,-23,-12,63,-257,10,14,-18,-13,67,-257,14,14,-5
idle,-11,66,-255,16,21,-3,-9,64,-254,13,19,-19,-7,65,-255,-14,-7,-9,-10,64,-257,12,13,-13,-9,67,-255,-1,9,-13,-12,63,-256,15,31,-12,-11,62,-255,10,8,-20,-9,68,-254,11,22,-30,-15,65,-256,-2,0,-2,-12,67,-256,3,3,-5,-9,65,-255,-3,10,-14,-8,65,-255,3,8,-7,-12,64,-254,16,5,-6,-12,64,-255,-2,7,-29,-11,69,-257,18,22,-17,-11,65,-255,17,16,-16,-11,65,-255,6,15,-23,-11,67,-256,-2,11,-14,-13,67,-257,16,22,-16,-11,67,-254,13,17,-5,-11,66,-254,-3,7,-6,-13,64,-256,15,-3,0,-9,65,-257,13,13,-6,-12,64,-256,13,26,-4,-11,63,-254,10,14,-21,-11,66,-256,13,9,-10,-11,65,-257,9,15,-14,-11,66,-254,10,4,-14,-10,66,-255,14,8,-9,-12,65,-256,-9,6,-26
idle,-11,67,-256,17,11,-9,-12,66,-258,2,1,-12,-7,66,-254,0,3,21,-14,65,-256,26,8,-6,-5,64,-253,14,25,-6,-12,63,-255,13,14,-10,-13,65,-255,9,3,-29,-9,66,-254,28,8,-18,-9,64,-258,16,-2,-6,-11,64,-257,12,25,-8,-11,61,-255,6,36,-19,-10,65,-256,16,21,-18,-9,64,-256,7,14,-20,-11,66,-255,28,24,-14,-11,66,-255,-8,15,-13,-10,65,-255,6,11,-14,-10,62,-253,9,9,-13,-15,65,-254,23,18,-23,-11,64,-252,13,16,-6,-12,65,-257,-2,-1,-12,-8,64,-257,-2,17,-15,-12,67,-254,29,22,-2,-12,61,-256,-2,6,-14,-11,64,-257,7,7,-26,-10,64,-258,7,10,-26,-9,67,-256,21,17,-13,-12,66,-255,10,16,-11,-11,65,-255,17,20,-7,-11,60,-254,19,2,-33,-13,66,-252,24,6,-38
idle,-7,63,-254,-13,-17,-57,-10,69,-256,21,-1,-32,-9,65,-260,12,-13,-21,-10,68,-260,13,38,-29,-11,64,-257,2,38,-10,-14,63,-259,-5,45,-17,-12,67,-251,0,40,-17,-12,62,-253,2,11,-16,-11,67,-252,6,0,-26,-13,63,-256,20,0,-21,-10,68,-256,23,13,-28,-8,71,-256,22,20,-20,-11,67,-256,19,22,-22,-10,66,-252,26,15,-12,-14,67,-254,19,1,-19,-9,65,-259,3,11,-10,-10,62,-256,24,9,-6,-8,74,-254,15,21,-14,-12,64,-255,-6,4,0,-11,66,-256,48,25,3,-13,62,-257,-14,1,-22,-12,62,-256,3,7,-11,-11,67,-252,20,17,-21,-9,68,-254,26,22,-7,-10,65,-252,7,13,-13,-14,65,-255,11,10,-17,-12,67,-253,-3,3,-19,-11,66,-255,28,20,-7,-11,69,-252,14,17,-17,-13,64,-255,-1,0,-9
idle,-10,65,-255,16,9,-15,-11,66,-256,17,11,-4,-11,62,-256,-2,2,-13,-12,66,-256,-5,5,-14,-10,65,-255,25,16,-16,-13,67,-251,10,11,-8,-14,62,-257,-9,0,-19,-11,66,-258,3,9,-18,-13,66,-256,19,12,-10,-10,65,-257,2,7,-16,-12,67,-253,2,11,-1,-11,65,-258,9,20,-18,-9,67,-255,13,17,-7,-11,66,-252,3,20,-18,-12,64,-256,7,21,-20,-10,63,-256,-7,10,-12,-12,68,-255,15,15,-15,-12,68,-252,17,9,-12,-12,68,-254,0,7,-24,-12,64,-257,-2,7,8,-14,66,-256,1,13,-5,-10,65,-253,14,11,-9,-14,63,-255,3,4,-23,-14,68,-256,23,9,-14,-14,65,-251,22,17,-13,-11,70,-252,-20,-11,-12,-12,72,-257,32,26,-4,-13,66,-254,10,17,-8,-12,67,-254,1,9,-22,-10,68,-255,7,18,-13
idle,-10,67,-252,13,-7,-7,-14,67,-255,1,6,-21,-12,67,-253,25,20,-4,-12,67,-254,3,12,-18,-11,66,-253,7,5,-18,-13,68,-252,23,16,-21,-12,68,-253,12,15,-10,-12,67,-254,23,13,-10,-11,68,-256,2,18,-18,-13,64,-252,7,0,-14,-14,65,-256,-4,-2,-42,-16,62,-253,1,-18,-11,-13,68,-258,13,6,-37,-11,70,-254,12,7,-7,-13,69,-257,-12,28,-32,-11,68,-252,21,37,-7,-15,64,-257,22,32,-16,-16,69,-249,-2,35,-38,-15,68,-252,7,24,-16,-16,66,-254,6,16,-6,-14,68,-254,-3,-10,-1,-13,65,-255,18,6,-11,-13,67,-254,11,10,-11,-15,64,-253,6,4,-6,-13,68,-256,0,5,-17,-14,69,-252,6,12,1,-13,68,-255,11,14,-8,-12,68,-254,-4,12,-3,-10,64,-255,23,22,-3,-12,65,-251,-4,13,-22
