Lable;AccX1;AccY1;AccZ1;GyrX1;GyrY1;GyrZ1;AccX2;AccY2;AccZ2;GyrX2;GyrY2;GyrZ2;AccX3;AccY3;AccZ3;GyrX3;GyrY3;GyrZ3;AccX4;AccY4;AccZ4;GyrX4;GyrY4;GyrZ4;AccX5;AccY5;AccZ5;GyrX5;GyrY5;GyrZ5;AccX6;AccY6;AccZ6;GyrX6;GyrY6;GyrZ6;AccX7;AccY7;AccZ7;GyrX7;GyrY7;GyrZ7;AccX8;AccY8;AccZ8;GyrX8;GyrY8;GyrZ8;AccX9;AccY9;AccZ9;GyrX9;GyrY9;GyrZ9;AccX10;AccY10;AccZ10;GyrX10;GyrY10;GyrZ10;AccX11;AccY11;AccZ11;GyrX11;GyrY11;GyrZ11;AccX12;AccY12;AccZ12;GyrX12;GyrY12;GyrZ12;AccX13;AccY13;AccZ13;GyrX13;GyrY13;GyrZ13;AccX14;AccY14;AccZ14;GyrX14;GyrY14;GyrZ14;AccX15;AccY15;AccZ15;GyrX15;GyrY15;GyrZ15;AccX16;AccY16;AccZ16;GyrX16;GyrY16;GyrZ16;AccX17;AccY17;AccZ17;GyrX17;GyrY17;GyrZ17;AccX18;AccY18;AccZ18;GyrX18;GyrY18;GyrZ18;AccX19;AccY19;AccZ19;GyrX19;GyrY19;GyrZ19;AccX20;AccY20;AccZ20;GyrX20;GyrY20;GyrZ20;AccX21;AccY21;AccZ21;GyrX21;GyrY21;GyrZ21;AccX22;AccY22;AccZ22;GyrX22;GyrY22;GyrZ22;AccX23;AccY23;AccZ23;GyrX23;GyrY23;GyrZ23;AccX24;AccY24;AccZ24;GyrX24;GyrY24;GyrZ24;AccX25;AccY25;AccZ25;GyrX25;GyrY25;GyrZ25;AccX26;AccY26;AccZ26;GyrX26;GyrY26;GyrZ26;AccX27;AccY27;AccZ27;GyrX27;GyrY27;GyrZ27;AccX28;AccY28;AccZ28;GyrX28;GyrY28;GyrZ28;AccX29;AccY29;AccZ29;GyrX29;GyrY29;GyrZ29;AccX30;AccY30;AccZ30;GyrX30;GyrY30;GyrZ30up;-87;-113;-233;-4;27;-15;-89;-111;-229;-17;17;-29;-88;-111;-215;23;12;-17;-88;-114;-221;-71;26;5;-88;-107;-223;55;0;-17;-87;-109;-220;7;16;-9;-88;-111;-221;8;15;2;-88;-108;-230;37;5;-21;-100;-137;-265;124;-25;-76;-100;-183;-329;234;83;-259;-89;-178;-337;-378;887;-455;-78;-148;-271;-233;1175;-658;-56;-135;-233;-172;1216;-707;-30;-116;-203;-199;1134;-710;9;-96;-181;-165;901;-624;38;-58;-132;-236;546;-411;45;-38;-102;-34;15;-169;35;-22;-96;330;-550;206;18;-61;-151;136;-923;651;-21;-126;-208;398;-1194;943;-49;-177;-267;-32;-1271;983;-70;-173;-300;-50;-942;581;-83;-163;-295;21;-663;405;-103;-144;-278;13;-467;276;-107;-116;-243;-144;-141;170;-86;-82;-236;57;45;-61;-94;-103;-193;-14;2;-34;-100;-120;-224;82;47;-26;-100;-113;-230;-20;34;-16;-98;-112;-221;21;20;-24up;-98;-113;-216;19;38;-13;-94;-108;-221;5;31;-10;-96;-116;-221;-50;32;-15;-97;-110;-215;50;6;-24;-94;-110;-217;-3;14;-8;-94;-111;-220;18;11;-18;-96;-117;-230;47;-7;-36;-96;-127;-285;277;20;-231;-119;-186;-337;-29;537;-523;-93;-182;-342;-467;1085;-706;-67;-138;-276;-635;1452;-628;-37;-93;-168;-249;1271;-563;-2;-64;-125;-177;851;-423;19;-49;-126;68;519;-223;27;-45;-120;388;165;-72;35;-61;-117;337;-465;151;21;-49;-136;198;-919;556;-20;-90;-203;144;-1162;767;-62;-157;-295;-348;-1101;724;-80;-148;-307;135;-929;457;-102;-150;-287;126;-529;303;-95;-125;-266;13;-336;186;-92;-157;-291;-56;22;55;-92;-102;-233;21;30;-22;-95;-120;-219;-35;23;-3;-88;-115;-221;2;48;-1;-91;-106;-227;22;14;-21;-92;-106;-218;-1;22;-15;-91;-111;-220;25;19;-9;-89;-109;-229;0;20;-8up;-91;-111;-219;31;2;-20;-90;-109;-221;2;17;-7;-90;-114;-220;-26;16;13;-91;-110;-222;11;13;-6;-91;-111;-224;7;7;1;-92;-110;-220;6;3;-11;-92;-117;-236;135;-55;-76;-96;-145;-306;359;26;-274;-130;-228;-366;-214;699;-592;-92;-183;-336;-308;1235;-847;-72;-146;-269;-249;1551;-1000;-31;-101;-182;-168;1489;-877;30;-57;-135;-335;1144;-562;51;-25;-100;156;547;-179;60;-29;-75;291;-107;125;31;-51;-78;201;-880;402;0;-76;-144;4;-1262;728;-39;-124;-223;764;-1442;779;-63;-162;-290;77;-1307;747;-71;-150;-312;-126;-939;599;-82;-157;-317;-189;-542;503;-127;-180;-369;407;72;-15;-83;-77;-220;303;20;-87;-87;-93;-198;2;-31;1;-95;-127;-227;-22;34;8;-90;-119;-230;-19;28;-5;-93;-116;-221;-77;34;-8;-90;-108;-219;10;21;-11;-92;-117;-222;-41;20;-4;-90;-106;-229;-13;18;-21up;-92;-111;-221;44;8;-26;-90;-106;-223;-21;31;1;-89;-113;-223;-15;13;-7;-87;-105;-224;38;8;-18;-100;-118;-252;7;8;-53;-91;-140;-301;103;139;-258;-104;-192;-359;-99;696;-447;-82;-181;-356;-238;1172;-703;-69;-171;-315;-519;1587;-801;-46;-108;-192;215;1489;-935;-2;-86;-108;-62;1302;-830;47;4;-54;-111;779;-386;63;2;-50;146;67;166;48;-30;-86;130;-780;548;20;-66;-154;-154;-1285;843;-49;-130;-233;779;-1517;830;-47;-182;-295;201;-1314;821;-59;-175;-319;139;-968;587;-84;-156;-300;-121;-487;387;-94;-147;-278;-289;-219;274;-84;-156;-275;-22;-3;72;-85;-102;-223;28;6;-25;-89;-123;-218;-61;3;-7;-87;-116;-222;51;12;-19;-89;-112;-226;-31;18;-7;-87;-113;-224;-7;16;-20;-88;-112;-219;16;5;-15;-89;-119;-222;-18;24;-4;-87;-110;-227;9;11;-18;-84;-109;-219;-23;18;0up;-88;-113;-222;23;12;-11;-88;-113;-224;-5;12;-9;-87;-114;-223;15;13;-16;-85;-109;-224;46;11;-17;-101;-132;-254;129;42;-112;-83;-125;-271;226;183;-265;-90;-181;-336;4;606;-554;-79;-190;-331;-297;1051;-717;-60;-178;-296;-350;1390;-875;-53;-131;-199;-203;1542;-938;8;-64;-111;-134;1322;-808;62;-23;-112;-141;775;-383;80;-14;-89;240;111;111;44;-38;-89;192;-663;475;20;-78;-138;-198;-1190;689;-9;-120;-207;208;-1353;889;-47;-178;-260;393;-1299;832;-63;-186;-299;75;-1116;742;-85;-188;-318;-140;-725;527;-77;-154;-292;-151;-382;383;-115;-208;-311;3;64;42;-75;-100;-233;-30;15;0;-88;-111;-209;1;-23;-16;-82;-114;-226;-45;24;11;-90;-115;-224;17;1;0;-90;-110;-221;37;-4;-17;-89;-118;-223;2;10;-3;-91;-116;-221;-33;5;-1;-89;-113;-221;22;-9;-26;-91;-114;-220;12;6;-5up;-91;-111;-222;12;16;-8;-89;-112;-221;6;9;-11;-89;-112;-222;24;8;-5;-89;-111;-221;11;4;-10;-93;-115;-234;22;-7;-32;-123;-154;-273;285;-23;-191;-70;-155;-302;-25;260;-357;-93;-159;-345;-164;956;-621;-91;-186;-318;-475;1435;-880;-53;-139;-236;-424;1523;-986;-11;-88;-157;-370;1281;-851;26;-48;-124;-392;813;-522;48;-3;-83;-6;336;-132;41;-8;-68;424;-327;152;27;-45;-101;452;-932;420;-10;-65;-156;266;-1207;747;-34;-137;-242;812;-1436;842;-70;-169;-308;-14;-1154;887;-69;-161;-328;-49;-803;726;-80;-153;-304;-427;-468;622;-98;-134;-270;113;-358;360;-73;-106;-263;-224;121;26;-104;-104;-208;-82;7;-48;-97;-120;-220;-40;8;-13;-100;-104;-232;-53;28;-4;-95;-103;-225;4;-3;-26;-94;-97;-213;-48;25;-2;-98;-104;-228;-18;1;-2;-96;-102;-224;3;1;-15;-96;-102;-224;5;21;-12up;-97;-104;-227;-11;14;-8;-95;-102;-223;15;9;-8;-96;-98;-223;33;5;-17;-97;-104;-222;7;14;-1;-99;-103;-225;29;5;-8;-96;-103;-224;5;10;-13;-104;-107;-270;140;-26;-137;-100;-161;-362;-41;316;-389;-107;-178;-382;-171;1204;-791;-84;-179;-308;-120;1643;-1045;-50;-130;-218;-578;1766;-817;-17;-72;-152;-295;1420;-636;24;-35;-113;-73;950;-414;57;-16;-87;349;465;-152;54;-40;-76;217;-209;47;60;-46;-116;217;-828;287;16;-88;-174;16;-1066;611;1;-98;-222;276;-1195;777;-32;-127;-280;145;-1212;841;-57;-140;-306;1;-970;661;-72;-152;-295;29;-789;572;-73;-134;-268;168;-588;442;-87;-139;-261;-113;-425;338;-128;-181;-301;73;-88;44;-92;-86;-228;123;22;-29;-91;-102;-205;-62;-20;-8;-102;-104;-219;55;20;-26;-102;-106;-230;-22;10;-6;-96;-109;-226;32;5;-32;-98;-104;-217;-5;13;-17up;-99;-104;-217;6;15;-5;-100;-111;-223;6;17;-15;-99;-106;-221;11;5;-15;-100;-107;-219;12;17;-19;-99;-108;-226;-1;8;-22;-108;-120;-250;113;-21;-123;-111;-153;-369;-7;324;-343;-102;-202;-375;-91;1193;-859;-84;-195;-311;23;1651;-1198;-50;-138;-228;-274;1799;-1166;-13;-84;-154;-2;1616;-1031;39;-41;-82;-231;1064;-654;67;8;-57;-6;316;-108;57;-8;-66;461;-450;343;43;-65;-141;59;-1007;769;-7;-103;-182;280;-1391;972;-49;-120;-225;508;-1321;877;-57;-155;-278;-124;-1221;740;-70;-151;-298;-178;-927;609;-72;-176;-307;-190;-504;412;-69;-140;-274;27;-259;253;-83;-130;-239;98;-238;191;-103;-121;-237;-183;-59;121;-93;-121;-229;3;20;-2;-93;-104;-218;-66;2;-10;-89;-117;-217;-67;16;4;-92;-116;-221;-68;24;14;-94;-115;-219;-16;20;-10;-93;-108;-219;-6;7;-2;-92;-113;-224;-20;19;2up;-96;-113;-219;3;23;-6;-95;-109;-222;7;17;-4;-91;-111;-221;5;25;-6;-93;-110;-224;11;12;-15;-93;-113;-226;-1;23;-25;-90;-112;-239;153;-32;-89;-91;-152;-319;155;195;-280;-100;-222;-391;-375;954;-567;-93;-195;-346;37;1510;-1015;-74;-137;-234;159;1711;-1172;-19;-100;-168;-80;1622;-1033;33;-62;-120;199;1079;-742;75;-28;-83;-101;494;-229;57;-37;-68;-82;-320;210;41;-21;-69;-68;-1099;571;3;-67;-149;-39;-1560;950;-47;-98;-252;601;-1506;962;-64;-200;-320;-191;-1284;862;-67;-192;-336;-333;-866;612;-84;-152;-304;-40;-508;351;-83;-101;-220;-146;-90;267;-98;-133;-267;-86;9;14;-90;-90;-210;-19;-2;-20;-95;-112;-212;15;3;17;-94;-104;-233;63;18;3;-94;-105;-230;-47;17;-6;-93;-108;-222;-18;2;-17;-93;-105;-220;-31;23;-12;-93;-105;-224;-7;16;-20;-92;-105;-222;7;16;-11up;-92;-106;-222;11;15;-14;-93;-106;-225;-12;33;-14;-93;-105;-226;-14;16;-9;-97;-105;-227;11;22;-20;-97;-116;-261;226;56;-150;-102;-161;-333;-11;242;-275;-98;-208;-368;-210;944;-739;-76;-183;-328;-284;1395;-1039;-52;-141;-248;-307;1509;-1035;-20;-73;-168;-342;1424;-826;22;-37;-136;-28;1049;-553;59;-6;-103;134;436;-199;49;-19;-73;189;-241;117;27;-31;-80;-50;-948;476;-14;-47;-145;-22;-1447;876;-36;-111;-234;604;-1618;905;-61;-144;-307;164;-1505;988;-94;-172;-350;60;-982;719;-103;-154;-305;281;-547;349;-124;-120;-327;77;-12;72;-96;-106;-245;7;66;-19;-97;-88;-190;-51;-33;22;-103;-109;-233;30;31;4;-104;-98;-226;6;-9;13;-103;-99;-225;-40;-11;-5;-103;-96;-217;-1;5;0;-103;-102;-219;-36;13;-7;-103;-94;-224;35;7;-22;-100;-98;-227;17;11;-10;-102;-94;-224;2;22;-4down;34;-43;-264;9;6;-1;28;-39;-251;55;26;-33;27;-28;-230;33;-1;-45;26;-31;-197;167;-184;-9;14;-32;-184;267;-519;64;-12;-43;-166;306;-827;221;-27;-62;-203;22;-1025;236;-55;-76;-257;-137;-1225;468;-82;-64;-306;-342;-1268;686;-212;-67;-512;547;-401;28;-74;-32;-378;271;82;-116;-93;-44;-277;-38;176;-108;-85;-46;-252;70;257;-159;-91;-54;-299;185;446;-208;-79;-81;-317;-185;798;-296;-63;-62;-293;26;913;-405;-43;-55;-259;107;921;-466;-21;-46;-215;-181;878;-321;2;-30;-191;0;583;-221;19;-22;-194;11;328;-30;21;-41;-216;41;96;22;28;-43;-233;-122;15;-26;28;-41;-246;78;-47;-24;27;-42;-260;-10;-22;-5;27;-47;-264;56;-36;7;25;-48;-267;33;-38;29;21;-49;-259;83;-21;18;23;-47;-255;43;-21;-18;21;-48;-259;51;-16;17;19;-56;-254;43;-14;11down;17;-51;-231;68;-74;-23;11;-41;-203;154;-238;-21;6;-44;-216;4;-392;52;-9;-46;-224;269;-535;245;-26;-59;-180;197;-762;287;-55;-49;-190;-102;-1017;242;-75;-55;-266;-378;-1171;442;-82;-29;-317;-920;-1356;831;-108;-105;-433;7;37;-31;-65;-45;-320;-128;174;-32;-80;-51;-240;-76;173;-50;-87;-33;-267;403;172;-125;-93;-75;-311;-260;583;-150;-82;-63;-304;172;743;-323;-66;-61;-283;-92;985;-362;-45;-61;-261;104;982;-412;-16;-45;-223;-60;916;-360;5;-41;-191;-178;686;-230;27;-20;-182;-68;333;-66;24;-43;-211;-3;25;46;27;-47;-234;-105;-63;27;33;-44;-256;-2;-90;13;31;-43;-266;66;-53;13;28;-43;-267;-12;-15;35;24;-48;-264;35;0;-7;25;-46;-254;-1;15;-14;24;-45;-259;-3;1;9;25;-56;-270;-51;-13;7;22;-46;-260;100;1;-10;27;-43;-258;53;-7;-26down;25;-45;-260;5;-14;2;23;-46;-262;11;-4;11;19;-54;-259;16;-1;-23;18;-46;-247;83;-35;-21;13;-37;-218;-19;-102;-17;-5;-24;-149;32;-335;-14;-20;-43;-125;18;-922;14;-25;-17;-193;-163;-1565;357;-83;-37;-327;61;-1624;612;-131;-24;-370;-314;-373;379;-72;-25;-385;-59;208;-68;-76;-8;-293;527;175;-112;-98;-62;-295;257;423;-155;-89;-93;-314;76;790;-325;-65;-61;-277;71;972;-336;-54;-79;-248;-142;1018;-312;-22;-34;-196;-6;823;-256;2;-29;-170;-41;489;-110;13;-39;-200;-111;126;-9;9;-46;-237;-44;35;-23;17;-56;-255;-28;17;-23;21;-55;-264;-67;14;-10;24;-48;-264;55;11;-31;23;-51;-263;-2;25;-10;19;-40;-254;82;17;-26;20;-49;-255;29;9;-19;19;-55;-258;-6;11;-9;16;-58;-261;-20;-7;0;17;-51;-263;-10;7;-14;18;-48;-263;2;20;-10down;17;-53;-260;-7;21;-19;19;-53;-256;19;12;-17;20;-47;-245;96;-9;10;12;-42;-231;104;-103;20;15;-29;-221;-15;-222;63;-9;-48;-178;158;-474;130;-19;-32;-151;53;-799;182;-38;-50;-199;-133;-1271;433;-85;-54;-302;-230;-1311;566;-148;-38;-411;126;-347;133;-55;-25;-401;397;156;-195;-84;-44;-254;434;122;-113;-87;-46;-261;-70;289;-61;-95;-92;-311;32;527;-238;-70;-58;-304;34;757;-342;-59;-74;-275;-69;924;-372;-35;-44;-225;-120;872;-320;-1;-36;-199;-96;563;-230;9;-16;-191;-29;265;-128;7;-37;-225;17;115;-55;17;-28;-251;-1;12;-10;10;-36;-261;58;44;-15;15;-43;-259;-60;43;-20;15;-40;-256;-3;11;-5;14;-39;-256;14;-7;9;10;-46;-264;-16;-11;7;9;-42;-261;12;-5;-6;14;-33;-261;10;-6;-24;10;-41;-263;6;10;2;13;-43;-258;-2;14;-15down;13;-41;-260;23;-2;-16;12;-44;-262;21;3;-7;8;-38;-253;34;7;-8;7;-32;-244;27;-55;-25;9;-31;-229;107;-150;3;-5;-31;-221;51;-267;86;-23;-27;-183;145;-494;79;-17;-36;-185;12;-814;136;-35;-57;-258;8;-1262;452;-69;-47;-316;-203;-1076;655;-159;-138;-495;781;-11;-3;-46;5;-282;-318;199;-40;-77;-41;-229;116;53;-63;-80;-55;-273;301;122;-165;-89;-68;-308;22;478;-280;-75;-79;-315;10;783;-414;-51;-48;-274;-19;921;-414;-36;-60;-235;-303;976;-333;-10;-37;-198;-48;695;-258;8;-22;-193;-37;409;-82;14;-41;-218;25;166;22;15;-53;-238;-38;54;5;21;-46;-253;-44;5;-58;26;-41;-260;13;-5;-15;23;-45;-262;56;7;-22;25;-42;-261;38;12;-29;22;-41;-261;51;22;-18;21;-49;-261;-10;10;-18;22;-42;-262;-10;16;-16;19;-48;-259;2;16;-10down;19;-46;-261;-21;15;6;20;-48;-258;54;15;-13;23;-44;-255;58;-8;-14;26;-45;-254;-2;-44;9;14;-39;-243;25;-83;73;3;-18;-197;86;-234;110;-6;-37;-144;184;-623;235;-24;-41;-177;60;-1122;361;-62;-63;-269;-192;-1271;536;-91;-70;-313;-93;-1052;584;-189;-117;-512;903;-120;-137;-64;-84;-360;-147;168;-113;-78;-90;-268;-14;94;-69;-67;-44;-251;366;105;-75;-93;-86;-302;-100;558;-173;-80;-82;-296;136;790;-418;-62;-86;-277;-47;989;-501;-35;-68;-238;-61;976;-438;-5;-45;-199;-50;729;-288;18;-41;-182;104;384;-67;18;-64;-214;-82;79;9;11;-62;-230;-56;8;2;23;-65;-250;-25;-44;-20;22;-69;-256;-80;-8;35;19;-72;-261;17;-3;-20;21;-65;-258;-4;7;-36;20;-64;-256;5;12;-21;21;-64;-260;10;-2;-24;17;-64;-254;35;9;-4;19;-66;-257;-19;28;-10down;18;-72;-263;-21;13;-37;23;-64;-257;46;2;-38;20;-58;-256;21;5;-18;15;-62;-249;-1;3;-4;17;-57;-235;38;-29;36;1;-52;-196;98;-180;75;-4;-50;-164;-112;-566;118;-26;-44;-157;146;-966;314;-49;-63;-214;-143;-1360;483;-92;-73;-307;-403;-1307;698;-227;-67;-512;1034;-68;-166;-38;-30;-309;-480;232;-60;-75;-62;-224;-40;58;-69;-80;-49;-236;308;12;-26;-105;-95;-294;-65;309;-121;-83;-73;-314;207;599;-320;-69;-90;-300;-113;877;-384;-43;-64;-254;23;920;-374;-25;-58;-221;-61;820;-293;-2;-49;-185;-96;555;-164;12;-42;-198;-90;238;-23;14;-56;-230;47;34;62;7;-67;-249;34;-10;18;14;-62;-254;4;25;-36;15;-59;-253;-26;25;-21;12;-63;-255;-43;28;-21;13;-64;-256;-12;17;-30;18;-63;-258;35;-6;-27;18;-60;-260;24;7;-9;16;-62;-258;46;7;-22down;19;-59;-256;23;9;-22;14;-58;-253;33;9;-1;13;-67;-255;-37;-13;9;10;-60;-242;75;-41;9;2;-54;-206;58;-148;53;3;-51;-178;-175;-472;133;-18;-49;-169;9;-894;311;-53;-51;-202;-4;-1141;439;-85;-69;-283;-300;-1239;481;-126;15;-334;-762;-332;574;-102;-128;-412;-401;245;-175;-59;-19;-264;171;63;-29;-85;-51;-255;6;164;-66;-107;-62;-316;336;324;-160;-89;-59;-321;-123;761;-367;-67;-60;-272;129;989;-390;-49;-52;-222;106;919;-361;-18;-62;-199;-202;776;-272;4;-41;-193;-14;360;-137;18;-29;-204;44;-10;6;0;-50;-237;51;-62;18;10;-51;-254;47;-81;52;4;-60;-255;79;-90;68;1;-53;-260;-13;-46;35;-7;-67;-266;-51;4;6;1;-63;-264;-4;9;-17;2;-64;-269;-2;11;-25;0;-55;-256;130;11;-45;-3;-55;-255;51;8;-40;4;-55;-257;-24;17;-14down;0;-72;-253;-35;-29;1;-4;-52;-244;47;-83;18;-6;-61;-231;-44;-152;14;-19;-40;-193;240;-301;71;-25;-11;-169;112;-633;187;-44;-57;-237;-321;-946;412;-86;-70;-270;-143;-1009;400;-94;-55;-275;-164;-842;320;-103;-93;-418;-67;104;-45;-58;9;-277;162;127;-55;-73;-43;-230;18;110;-72;-91;-60;-283;281;251;-160;-95;-77;-312;95;631;-310;-69;-71;-287;105;864;-390;-48;-61;-248;22;907;-340;-24;-57;-217;16;714;-233;-16;-60;-207;-70;499;-127;-1;-40;-204;88;289;-41;7;-64;-223;-119;98;-29;9;-55;-238;-57;0;-19;6;-56;-254;56;-32;7;4;-61;-262;-29;-19;-16;9;-62;-269;-18;0;-23;10;-55;-259;93;8;-20;7;-51;-253;50;6;-17;4;-63;-258;-17;6;-15;4;-63;-261;-30;11;-13;4;-63;-264;9;18;-15;5;-63;-258;44;22;-35;6;-56;-254;29;9;-11down;5;-56;-253;40;-1;3;5;-66;-243;18;-40;14;6;-53;-237;234;-158;37;-5;-48;-225;173;-190;112;-16;-66;-193;221;-419;111;-25;-63;-197;-153;-654;198;-52;-54;-205;-124;-1013;413;-79;-84;-254;-414;-1175;519;-162;-56;-406;-85;-627;554;-99;-62;-432;-246;287;-218;-79;-48;-257;253;177;-102;-70;-28;-236;213;268;-76;-82;-81;-293;81;386;-159;-71;-65;-297;142;563;-287;-68;-82;-291;-19;845;-362;-47;-67;-251;214;890;-427;-16;-49;-212;-60;788;-360;4;-46;-189;-41;446;-158;4;-52;-208;10;152;-45;11;-70;-238;-114;-8;3;14;-61;-250;-61;-28;26;10;-63;-262;42;-16;16;12;-61;-262;12;12;-33;14;-66;-258;-35;26;18;10;-65;-254;53;-2;-6;15;-60;-259;-13;3;-21;10;-62;-260;5;29;-9;12;-63;-259;48;-1;-28;14;-61;-259;24;4;-5;8;-59;-255;37;1;-4left;-51;-87;-247;3;23;-3;-54;-94;-245;-16;29;-10;-51;-93;-246;-1;35;-9;-49;-93;-243;-2;33;-23;-49;-92;-242;62;16;-21;-47;-96;-241;14;-2;-12;-51;-100;-242;28;11;-33;-53;-136;-235;84;8;-122;-47;-171;-221;15;-20;-479;-44;-182;-208;51;-89;-873;-47;-169;-211;-375;-220;-1026;-57;-122;-218;134;-443;-1139;-66;-105;-230;-405;-421;-1102;-65;-29;-251;-774;-318;-1034;-55;11;-277;-498;-202;-800;-46;49;-280;-350;-48;-340;-44;56;-279;36;41;68;-48;30;-274;265;128;503;-56;-13;-265;473;174;706;-67;-53;-251;573;247;987;-60;-79;-250;794;230;1137;-60;-143;-235;315;268;1127;-60;-179;-214;175;237;804;-54;-162;-221;78;204;446;-47;-142;-223;62;150;186;-47;-119;-228;27;79;102;-46;-114;-234;22;27;84;-46;-104;-239;-26;23;-10;-50;-103;-241;-51;17;-37;-48;-98;-245;16;3;-30left;-47;-90;-248;18;8;-7;-49;-92;-245;1;16;-7;-48;-91;-241;30;6;1;-47;-93;-243;6;8;-5;-47;-98;-243;8;10;7;-48;-101;-246;4;3;-11;-50;-98;-242;29;19;-17;-56;-124;-236;-7;-2;-57;-47;-173;-228;-72;-41;-314;-45;-176;-220;-165;-78;-714;-49;-156;-220;-421;-167;-1033;-52;-131;-231;-300;-257;-1094;-51;-67;-240;-421;-294;-1019;-60;-40;-254;-362;-309;-823;-57;-17;-261;-216;-301;-641;-60;3;-272;-225;-149;-437;-50;23;-278;-206;29;-148;-47;26;-273;59;121;223;-56;6;-263;186;194;582;-59;-38;-255;143;194;778;-52;-42;-253;85;159;1025;-58;-100;-257;45;141;1067;-57;-123;-248;250;92;792;-47;-106;-227;354;25;494;-49;-108;-239;133;51;367;-51;-104;-246;146;53;218;-57;-101;-246;8;42;98;-56;-87;-248;30;50;28;-52;-72;-247;54;44;-23;-48;-73;-247;20;9;20left;-50;-76;-251;8;15;-8;-49;-73;-252;18;11;-18;-51;-75;-251;12;17;-10;-51;-75;-251;15;18;-16;-49;-70;-248;50;18;2;-50;-77;-250;10;15;-1;-50;-73;-253;38;46;2;-60;-122;-244;127;79;-116;-55;-185;-221;-15;40;-578;-43;-187;-221;-91;-66;-1057;-54;-153;-233;-317;-126;-1506;-72;-83;-241;-615;-165;-1614;-61;-17;-259;-516;-191;-1322;-40;46;-249;-308;-144;-841;-40;45;-263;-167;-162;-463;-35;22;-277;-153;-80;-134;-33;10;-278;34;-13;189;-39;19;-270;128;108;399;-49;6;-262;149;191;622;-34;15;-251;508;120;926;-48;-49;-258;589;109;1238;-65;-91;-251;441;210;1128;-59;-89;-233;521;136;1039;-46;-125;-229;118;103;905;-49;-128;-233;96;39;726;-54;-130;-235;22;32;507;-58;-131;-240;-22;34;213;-54;-106;-246;-25;35;5;-50;-78;-247;39;18;-16;-53;-74;-248;50;3;10left;-56;-79;-249;18;23;-18;-51;-77;-249;6;40;-15;-54;-76;-246;5;29;-30;-51;-75;-248;22;24;-36;-50;-71;-247;65;20;-18;-48;-76;-248;-22;20;-6;-50;-82;-248;-5;29;-18;-57;-134;-236;-13;31;-151;-55;-173;-223;-129;11;-599;-47;-162;-226;-387;-52;-1017;-41;-121;-244;-492;-114;-1165;-56;-76;-243;-560;-219;-1213;-61;-33;-249;-516;-243;-1175;-61;19;-254;-414;-207;-945;-58;58;-271;-376;-122;-630;-56;74;-278;-65;3;-204;-56;53;-275;43;106;161;-46;36;-267;255;161;524;-40;-13;-251;479;107;829;-55;-52;-254;374;179;820;-45;-49;-253;265;114;873;-47;-64;-245;461;76;920;-47;-113;-234;350;53;857;-49;-112;-237;143;39;545;-49;-112;-244;51;8;346;-45;-87;-252;134;38;108;-53;-91;-257;-48;46;26;-49;-75;-256;96;19;39;-49;-65;-249;28;38;-22;-48;-70;-248;-8;31;-32left;-46;-67;-250;28;16;-21;-47;-67;-254;7;12;-39;-49;-64;-251;27;20;-33;-46;-61;-253;12;26;-29;-47;-64;-254;9;14;15;-48;-72;-253;-19;21;9;-50;-91;-252;31;32;-44;-47;-146;-244;26;16;-231;-44;-171;-240;-160;21;-635;-43;-132;-239;-39;-13;-958;-58;-131;-246;-573;-90;-1220;-55;-29;-237;-525;-86;-1212;-53;-3;-249;-779;-65;-1001;-29;22;-251;-323;-150;-759;-37;76;-264;-257;-121;-493;-39;71;-280;-212;1;-102;-40;70;-274;235;7;323;-45;38;-267;320;46;606;-40;5;-255;633;77;801;-48;-39;-252;230;139;1038;-53;-82;-261;293;111;1141;-49;-62;-243;44;177;692;-39;-96;-249;46;63;645;-39;-112;-254;189;-35;416;-38;-111;-249;-44;38;46;-34;-71;-255;-11;56;-105;-36;-50;-255;49;9;-85;-39;-41;-257;3;30;-74;-38;-39;-256;4;17;-26;-37;-43;-259;17;0;-3left;-36;-41;-261;28;-1;19;-38;-45;-258;23;11;38;-37;-51;-260;55;18;35;-37;-60;-255;51;6;-1;-37;-72;-256;66;4;-49;-41;-105;-254;105;0;-214;-40;-126;-257;-50;33;-558;-38;-124;-252;-136;4;-825;-41;-104;-245;-264;-77;-993;-52;-63;-244;-167;-134;-1061;-47;-22;-252;-173;-108;-1038;-38;15;-263;-453;-93;-752;-36;50;-270;-167;-124;-468;-35;62;-277;-81;-35;-126;-32;53;-278;131;34;310;-44;32;-268;179;122;606;-41;12;-264;331;145;885;-42;-27;-256;450;77;1143;-46;-77;-252;486;27;1215;-46;-115;-233;293;42;1007;-50;-122;-238;288;-62;788;-49;-105;-247;115;-20;484;-55;-102;-250;50;-14;294;-53;-92;-253;32;43;2;-50;-74;-253;-36;60;-95;-47;-59;-254;-9;48;-95;-47;-57;-253;10;21;-41;-45;-51;-251;36;8;-36;-41;-49;-256;19;0;5;-47;-61;-256;37;-1;-6left;-46;-56;-255;49;3;7;-44;-54;-252;23;15;-3;-46;-56;-254;1;4;27;-50;-62;-255;59;17;-6;-44;-63;-252;78;28;-26;-45;-86;-250;63;11;-73;-50;-114;-249;56;9;-213;-63;-153;-243;-28;76;-780;-45;-130;-238;-223;68;-1180;-44;-91;-236;-344;-60;-1234;-42;-37;-247;-404;-147;-1149;-48;-21;-262;-253;-146;-967;-38;-6;-265;-155;-133;-724;-35;17;-259;-42;-73;-519;-35;38;-267;-126;17;-169;-41;48;-269;92;45;161;-39;29;-271;163;73;622;-58;-4;-260;201;194;718;-35;-1;-257;272;108;1042;-45;-48;-262;307;99;1249;-51;-101;-254;353;75;1203;-47;-126;-238;94;37;898;-44;-120;-242;-31;0;552;-54;-121;-247;-4;-17;335;-50;-93;-255;120;-4;79;-46;-77;-258;77;14;-7;-46;-60;-256;63;12;0;-47;-61;-255;46;25;1;-45;-61;-252;-1;23;-12;-46;-60;-251;-19;17;-14left;-48;-63;-255;7;0;13;-47;-61;-255;38;19;-17;-44;-61;-254;31;22;-20;-43;-66;-256;7;15;-20;-46;-70;-256;45;39;-49;-47;-109;-247;49;57;-163;-51;-151;-234;-55;45;-538;-48;-150;-228;-92;14;-1071;-26;-109;-232;-378;-209;-1516;-46;-68;-245;-323;-210;-1320;-59;-23;-252;-495;-210;-1215;-59;3;-261;-364;-172;-963;-41;55;-267;-490;-29;-555;-41;93;-276;-24;-43;-83;-42;70;-271;99;41;354;-57;35;-262;249;72;748;-43;7;-264;488;111;983;-47;-30;-247;527;49;1127;-60;-73;-252;337;78;1192;-57;-118;-245;279;40;1025;-46;-125;-244;133;31;690;-57;-125;-243;-2;119;227;-43;-89;-249;105;63;114;-45;-61;-252;61;66;16;-43;-63;-255;14;42;79;-45;-66;-254;25;50;-12;-41;-62;-252;-12;40;-40;-43;-60;-252;2;17;-19;-42;-55;-249;30;0;-23;-43;-59;-254;0;-13;41left;-45;-58;-255;54;-10;48;-44;-63;-255;22;9;13;-45;-67;-255;-18;20;-24;-47;-82;-251;51;21;-64;-42;-101;-248;3;31;-225;-48;-139;-243;-117;25;-545;-42;-130;-242;-92;56;-966;-34;-111;-235;-368;14;-1268;-39;-63;-241;-550;-44;-1229;-45;-18;-255;-313;-163;-1052;-40;20;-257;-95;-155;-804;-45;73;-268;-280;-101;-476;-42;68;-279;-5;-14;-46;-28;37;-272;233;-3;404;-40;-2;-262;449;2;634;-44;-34;-266;78;149;641;-44;-24;-261;306;87;807;-45;-37;-244;444;46;935;-42;-85;-245;239;39;1003;-50;-97;-245;103;9;854;-56;-96;-248;165;5;609;-54;-85;-241;210;-5;440;-50;-103;-248;207;-9;369;-55;-114;-255;-38;49;83;-50;-90;-253;-46;26;-32;-51;-70;-255;32;10;-71;-49;-63;-253;43;26;-70;-49;-61;-255;31;7;-39;-51;-60;-252;14;8;-15;-55;-63;-251;36;17;-5left;-50;-66;-251;41;15;-19;-46;-69;-251;58;0;-17;-47;-73;-253;91;-2;-69;-49;-107;-247;51;-13;-124;-47;-134;-242;-91;-47;-436;-42;-122;-244;-39;-43;-721;-48;-119;-247;-367;-99;-899;-56;-103;-245;-169;-163;-946;-61;-58;-238;-238;-179;-998;-56;-35;-242;-424;-214;-906;-48;18;-259;-235;-180;-702;-50;34;-277;-131;-140;-329;-55;37;-283;10;-22;15;-55;7;-273;173;124;299;-54;-4;-257;393;164;429;-53;-14;-250;337;175;606;-56;-26;-246;414;167;829;-61;-55;-246;389;181;918;-53;-79;-239;509;62;976;-59;-117;-236;263;84;932;-61;-144;-228;266;-9;741;-59;-142;-233;221;-22;391;-62;-129;-240;147;1;148;-60;-102;-245;81;17;0;-61;-88;-244;17;46;-56;-61;-81;-246;29;14;-20;-62;-85;-243;-76;33;-26;-62;-86;-244;-67;23;-43;-59;-85;-245;6;0;-28;-60;-81;-244;16;-3;-14right;-11;-82;-253;-17;32;-34;-14;-85;-252;76;6;8;-13;-84;-249;54;4;0;-12;-90;-249;23;21;-13;-14;-90;-251;15;24;-18;-15;-85;-248;12;26;-42;-12;-81;-253;39;21;-14;-21;-32;-284;13;161;-1;-22;21;-282;-7;367;180;-13;24;-271;-88;399;797;-30;-13;-257;400;322;1298;-39;-113;-232;381;340;1696;-54;-182;-213;412;101;1437;-55;-197;-212;168;195;707;-35;-195;-221;206;199;235;-28;-171;-213;128;119;65;-30;-167;-211;-52;4;-201;-25;-174;-219;-141;-58;-530;-25;-199;-208;-152;-224;-820;-33;-165;-204;-254;-290;-1072;-28;-141;-226;-300;-346;-1288;-17;-73;-242;-108;-405;-1147;-25;-32;-267;-269;-373;-851;-23;-5;-282;-124;-241;-531;-15;-16;-279;-58;-170;-208;-22;-53;-260;-28;-117;-42;-20;-76;-248;-89;-45;-31;-23;-89;-250;42;-26;-29;-13;-86;-249;21;-13;-5;-16;-89;-252;0;1;9right;-18;-95;-254;54;-13;3;-19;-88;-252;11;15;-50;-16;-84;-252;-23;-2;-20;-16;-94;-253;-54;5;-11;-17;-90;-254;-17;17;-33;-20;-62;-261;-26;74;-6;-15;12;-275;-219;192;171;-19;55;-286;-76;251;700;-45;26;-278;103;307;1431;-72;-46;-255;431;363;1619;-72;-134;-219;782;284;1721;-69;-181;-210;305;242;1159;-57;-190;-203;136;227;602;-52;-204;-199;57;47;143;-32;-161;-215;3;-27;-86;-46;-186;-217;-117;-69;-454;-42;-178;-226;-34;-63;-779;-44;-168;-227;-7;-98;-1074;-41;-146;-221;121;-155;-1222;-32;-120;-224;-313;-267;-1236;-23;-89;-237;-114;-369;-1052;-17;-55;-253;-327;-335;-837;-21;-25;-266;-270;-279;-523;-23;-10;-265;-267;-159;-290;-21;-30;-264;-133;-93;-106;-17;-61;-263;-113;-68;-30;-14;-79;-258;-60;-18;35;-19;-89;-255;-12;4;20;-9;-91;-253;-37;5;-5;-10;-91;-253;17;2;-15right;-16;-88;-251;23;-6;-26;-16;-83;-256;5;-3;-41;-17;-76;-257;43;10;-43;-17;-79;-257;-4;33;-15;-12;-74;-261;1;30;29;-21;-57;-264;1;131;39;-16;0;-277;4;251;263;-22;22;-268;-164;312;663;-28;0;-262;69;172;1188;-57;-86;-267;130;295;1421;-43;-132;-247;44;340;1208;-35;-142;-236;86;249;1041;-41;-143;-223;128;192;711;-29;-156;-230;236;96;372;-37;-159;-224;151;30;122;-45;-197;-213;-157;-22;-457;-26;-170;-217;-7;-49;-872;-31;-152;-219;-376;-128;-1311;-18;-113;-236;-53;-307;-1351;-20;-45;-254;-2;-325;-1155;-29;-39;-279;-109;-329;-863;-27;-15;-262;112;-333;-547;-23;-32;-263;-201;-250;-423;-22;-33;-269;39;-148;-223;-24;-46;-269;-76;-45;-118;-20;-58;-262;-93;-13;-67;-16;-76;-252;-17;7;-32;-16;-76;-248;14;-5;7;-19;-79;-252;-6;-1;-29;-19;-77;-257;8;8;-23right;-18;-75;-254;19;15;-26;-17;-75;-253;16;18;-36;-13;-72;-255;40;6;5;-16;-75;-255;5;21;-15;-16;-76;-252;0;21;-16;-15;-66;-254;46;31;4;-18;-46;-268;73;99;73;-26;-9;-278;15;243;238;-21;48;-271;-123;322;593;-36;32;-267;144;269;1148;-55;-33;-254;183;228;1625;-53;-95;-237;205;113;1879;-85;-183;-223;539;-58;1485;-71;-197;-223;345;165;641;-50;-214;-212;202;203;-21;-50;-188;-203;25;92;-545;-36;-185;-220;-98;-21;-998;-40;-157;-216;-84;-166;-1349;-34;-130;-228;10;-245;-1339;-37;-100;-239;-100;-353;-1361;-27;-54;-258;-103;-356;-1172;-26;-9;-270;-446;-261;-791;-20;16;-275;-360;-193;-371;-23;-20;-272;-55;-210;-52;-20;-38;-263;35;-182;20;-21;-74;-258;-110;-56;17;-21;-75;-259;39;-4;-17;-20;-68;-254;61;12;-25;-21;-70;-251;44;2;-5;-22;-75;-253;-27;30;-24right;-22;-80;-254;-4;37;-40;-17;-77;-252;35;18;-19;-21;-75;-254;12;18;-37;-18;-77;-255;21;16;-38;-18;-66;-253;24;20;-20;-23;-41;-275;63;107;61;-31;32;-286;65;282;192;-27;72;-287;8;329;778;-52;2;-273;454;304;1557;-73;-100;-243;277;499;1586;-55;-145;-218;133;409;1383;-50;-173;-203;23;270;1047;-32;-192;-204;396;107;586;-29;-157;-217;94;92;164;-33;-174;-214;87;-15;-107;-39;-198;-206;-103;-116;-639;-20;-156;-229;71;-170;-1038;-24;-155;-258;-113;-214;-1237;-37;-107;-240;-59;-291;-1314;-38;-74;-250;-382;-294;-1188;-31;-32;-249;-74;-315;-880;-16;14;-249;-128;-291;-542;-25;-21;-262;-86;-284;-270;-25;-28;-268;-67;-207;-80;-29;-63;-268;-161;-87;-98;-21;-73;-267;-83;-24;-86;-18;-79;-263;-75;5;-31;-18;-76;-255;14;41;-30;-20;-74;-249;-14;54;-43;-18;-72;-249;51;33;-28right;-16;-69;-247;48;0;-24;-18;-75;-252;25;-12;-16;-17;-78;-258;6;1;-13;-18;-74;-255;10;23;-50;-25;-66;-258;62;49;-37;-24;-12;-274;93;142;72;-22;22;-281;-35;273;325;-23;39;-275;234;313;889;-43;-6;-263;377;276;1432;-62;-89;-234;679;366;1590;-59;-182;-219;641;320;1490;-55;-180;-218;36;324;859;-41;-161;-217;223;298;448;-43;-197;-202;-89;121;187;-42;-218;-197;-39;-34;-258;-39;-211;-196;-301;-93;-854;-32;-172;-204;-315;-204;-1206;-29;-127;-226;-227;-209;-1339;-32;-88;-240;-48;-307;-1467;-25;-53;-249;-247;-404;-1340;-16;-2;-275;-326;-337;-877;-26;1;-282;-316;-238;-399;-22;0;-272;52;-246;-170;-28;-44;-265;-48;-111;-41;-22;-57;-257;43;-42;-44;-17;-63;-256;72;7;-10;-13;-74;-255;85;15;8;-14;-77;-251;-11;17;1;-16;-82;-252;36;21;-1;-14;-80;-255;25;10;-19right;-15;-84;-253;-3;11;-14;-13;-74;-257;73;19;-44;-15;-64;-255;-17;35;7;-21;-55;-266;35;79;64;-25;-22;-277;66;225;185;-24;27;-269;76;286;558;-38;2;-275;135;233;1052;-45;-33;-266;64;261;1405;-60;-83;-250;307;348;1538;-57;-154;-232;432;341;1326;-44;-178;-221;138;281;930;-44;-178;-219;231;224;548;-33;-185;-211;28;131;177;-29;-174;-207;87;-16;-152;-30;-172;-223;-66;-97;-548;-27;-179;-235;-99;-118;-869;-33;-164;-223;182;-203;-1129;-42;-127;-235;-309;-203;-1281;-26;-97;-249;-45;-249;-1176;-25;-50;-250;-368;-302;-982;-15;-22;-270;-510;-302;-737;-16;-5;-271;-151;-277;-403;-19;-17;-271;-146;-184;-203;-24;-47;-261;4;-116;-98;-20;-59;-261;-23;-34;-79;-13;-64;-256;51;22;-19;-16;-67;-251;36;23;10;-13;-87;-253;-10;21;-9;-10;-87;-252;45;2;-24;-10;-80;-251;47;10;-37right;-13;-79;-255;16;8;-47;-14;-76;-255;-12;11;-30;-13;-76;-257;16;12;-20;-12;-72;-255;36;16;-6;-13;-58;-257;11;62;24;-13;-17;-269;207;111;171;-22;10;-280;-31;262;548;-32;4;-273;138;292;988;-39;-26;-265;240;332;1232;-40;-69;-251;189;407;1360;-49;-117;-234;77;352;1419;-46;-153;-219;313;185;1193;-34;-168;-215;451;161;724;-34;-177;-202;116;70;191;-35;-196;-209;-47;-62;-190;-44;-204;-199;-133;-126;-783;-36;-190;-208;-303;-178;-1325;-35;-138;-236;-333;-196;-1429;-22;-75;-253;-131;-253;-1495;-33;-38;-257;-257;-293;-1233;-28;-25;-263;-222;-341;-868;-32;1;-257;-395;-231;-612;-16;16;-266;-136;-191;-323;-19;-17;-270;-10;-108;-138;-17;-40;-266;49;-42;-35;-19;-55;-262;14;31;-39;-13;-69;-256;-17;19;-15;-10;-68;-256;61;22;-15;-8;-66;-254;58;25;-9;-8;-70;-253;28;-4;-15right;-14;-68;-252;43;-8;-23;-15;-67;-254;0;6;-52;-12;-65;-259;40;7;-37;-10;-60;-260;22;20;-2;-13;-54;-261;5;50;54;-19;-18;-277;96;171;154;-14;35;-277;31;282;437;-28;51;-273;211;349;993;-51;13;-271;229;312;1445;-53;-51;-244;366;360;1671;-50;-154;-225;528;309;1683;-41;-190;-221;180;244;1072;-36;-186;-216;202;254;481;-27;-214;-202;245;60;-63;-21;-189;-209;157;-55;-576;-24;-201;-222;-260;-187;-1067;-15;-163;-240;-174;-265;-1442;-35;-121;-245;-154;-324;-1521;-24;-82;-242;-65;-364;-1351;-18;-34;-253;-126;-424;-996;-18;-26;-267;-222;-334;-639;-13;-11;-270;-80;-219;-381;-13;-14;-269;-54;-156;-188;-14;-37;-270;-3;-52;-53;-12;-65;-264;-89;11;-30;-9;-82;-255;13;18;32;-7;-84;-250;32;30;8;-3;-93;-248;-1;1;-27;-5;-84;-258;14;6;-20;-6;-85;-256;-73;29;-15right;-8;-80;-254;-8;2;16;-11;-82;-254;-5;16;-7;-7;-87;-251;-26;26;-23;-7;-83;-253;15;8;-38;-5;-74;-255;9;12;-29;-10;-60;-265;84;62;12;-16;-5;-287;237;226;166;-19;23;-283;161;401;450;-20;36;-270;68;459;1012;-30;-22;-266;257;497;1530;-45;-110;-236;626;542;1771;-45;-189;-209;218;392;1549;-35;-204;-201;48;285;938;-25;-207;-200;19;166;410;-18;-196;-190;104;-28;24;-15;-211;-205;-54;-188;-496;-17;-198;-215;-281;-278;-908;-34;-171;-233;-208;-341;-1297;-35;-160;-229;-190;-448;-1476;-30;-74;-239;-214;-396;-1452;-36;-54;-259;-293;-358;-1259;-23;6;-270;-147;-269;-927;-19;15;-273;-71;-196;-464;-19;-11;-267;18;-132;-136;-15;-60;-258;-155;-53;-33;-3;-63;-256;43;-9;-15;-5;-72;-253;96;13;18;-6;-82;-248;22;15;-14;-1;-89;-248;18;6;-26;-3;-88;-250;-13;-31;-31tiltl;-62;-72;-247;-20;24;-5;-63;-73;-245;51;9;-20;-62;-71;-245;14;16;-22;-64;-72;-242;61;11;-21;-63;-72;-244;4;12;-13;-65;-71;-244;16;7;-12;-65;-73;-246;30;4;-4;-65;-75;-245;143;-19;-25;-66;-118;-261;-1666;612;236;-9;-185;-68;-10394;2503;1304;-47;128;-248;-517;88;-618;2;292;-200;-118;-116;-338;-13;212;-201;120;-64;28;-15;201;-193;552;-114;76;-18;171;-199;891;-215;46;-23;171;-216;3200;-725;-163;-59;54;-232;3648;-745;-368;-62;-39;-241;2561;-447;-326;-60;-60;-251;1742;-308;-257;-64;-88;-251;644;-122;-97;-69;-104;-243;165;-5;-40;-65;-86;-240;-112;42;-13;-69;-90;-239;23;19;-41;-69;-82;-243;-68;34;-39;-66;-73;-238;-27;25;-38;-65;-79;-243;-22;23;-13;-67;-81;-244;11;18;-9;-70;-87;-243;-18;31;-3;-68;-83;-243;-8;13;-9;-66;-86;-244;-14;24;-8tiltl;-65;-83;-242;30;23;-14;-68;-81;-240;14;23;-15;-66;-82;-241;22;29;-11;-66;-86;-242;-8;9;-14;-67;-83;-243;-8;15;-11;-66;-85;-246;16;3;-2;-65;-81;-243;23;1;-16;-76;-90;-248;-297;199;27;-74;-90;-253;-2518;812;347;-67;-62;-247;-4350;1358;554;2;143;-205;-3015;750;273;-2;118;-233;-714;84;-164;-11;167;-226;-53;-70;-95;-6;188;-221;271;-115;12;0;173;-220;1302;-351;7;-20;111;-221;3613;-994;-303;-60;-25;-243;3136;-844;-426;-71;-76;-248;1658;-433;-314;-68;-66;-250;989;-270;-225;-78;-109;-252;207;2;-80;-70;-93;-241;84;-2;-55;-76;-94;-241;-270;146;14;-68;-68;-237;134;-28;-80;-70;-85;-242;-116;39;-42;-65;-80;-243;106;-2;-41;-67;-83;-240;-11;2;-9;-68;-80;-240;39;10;-18;-69;-85;-244;-22;29;-10;-70;-84;-242;36;15;-14;-68;-81;-240;8;9;-8tiltl;-67;-85;-242;26;13;-14;-68;-87;-243;24;18;-11;-66;-83;-241;27;12;-11;-70;-86;-240;6;21;-15;-69;-85;-242;8;19;-13;-69;-84;-240;34;22;-20;-69;-84;-238;0;18;-11;-90;-123;-248;-982;464;143;-54;-30;-248;-2494;751;233;-37;-13;-236;-3822;1208;410;28;174;-191;-2984;544;152;-22;115;-233;-1261;77;-304;-11;191;-215;-458;-13;-182;-12;195;-214;512;-77;98;-1;180;-199;2246;-523;42;-31;102;-229;3695;-990;-274;-62;-38;-236;2735;-670;-328;-68;-46;-255;1654;-419;-279;-71;-85;-255;697;-141;-173;-70;-85;-243;556;-95;-179;-66;-90;-241;-23;51;-53;-71;-88;-241;-90;58;-15;-69;-86;-242;24;27;-15;-67;-87;-237;-42;39;-8;-70;-81;-237;25;20;3;-71;-83;-242;-26;5;7;-71;-85;-243;35;24;-9;-67;-84;-241;35;6;-7;-67;-86;-240;20;20;-19;-67;-85;-240;8;18;-11tiltl;-70;-84;-242;27;8;-24;-68;-83;-239;13;21;-6;-69;-85;-241;-19;7;-13;-68;-88;-242;2;15;-12;-68;-88;-242;11;8;-19;-68;-88;-243;34;19;-15;-67;-81;-240;22;19;-20;-70;-83;-240;33;24;-11;-76;-93;-245;-251;138;20;-64;-89;-247;-1949;575;250;-65;-109;-255;-4055;1366;511;-3;88;-208;-3896;969;215;-6;166;-224;-878;106;-259;-9;183;-220;-462;28;-123;-14;164;-218;-22;-41;-1;-7;174;-208;638;-143;18;-1;174;-216;2392;-631;-127;-19;80;-238;3957;-1091;-363;-55;-28;-238;3063;-835;-403;-74;-93;-254;1528;-366;-213;-72;-99;-241;414;-81;-107;-71;-107;-234;467;-18;-125;-66;-95;-229;-6;44;-51;-72;-103;-228;-96;66;-12;-70;-98;-227;-78;30;-34;-69;-97;-234;1;9;-52;-70;-94;-236;-5;20;-29;-66;-92;-237;12;12;-11;-66;-98;-238;-22;26;-13;-72;-94;-236;46;27;-24tiltl;-70;-95;-232;22;23;-18;-69;-97;-235;24;23;-6;-68;-100;-235;-22;12;-9;-66;-93;-236;55;10;-17;-68;-95;-236;37;12;-20;-66;-95;-234;41;16;-19;-70;-96;-236;-10;14;-10;-77;-112;-246;-249;138;18;-85;-162;-252;-4086;1261;528;-13;-30;-206;-5301;1575;502;42;291;-183;-899;228;-239;7;155;-217;-1101;100;-197;-6;161;-220;-370;17;-96;-2;178;-217;236;-62;46;-1;165;-215;1019;-206;35;-11;142;-228;2231;-539;-107;-24;78;-239;3715;-984;-416;-52;-50;-258;2549;-656;-312;-64;-91;-252;1605;-355;-255;-66;-98;-241;709;-129;-113;-66;-106;-235;210;8;-47;-62;-100;-232;286;-28;-80;-61;-100;-230;59;13;-29;-69;-116;-233;142;7;-21;-68;-106;-230;59;-2;-35;-64;-119;-234;-1;25;-4;-62;-114;-234;-1;0;-3;-62;-111;-230;39;9;-18;-64;-112;-230;-26;15;-12;-62;-113;-234;94;-9;-31tiltl;-63;-114;-232;5;11;-26;-66;-114;-229;-2;17;-29;-65;-110;-230;-7;27;-9;-66;-117;-233;-4;16;-5;-65;-114;-231;19;11;-9;-64;-112;-231;6;9;-14;-63;-112;-231;13;24;-15;-64;-118;-236;-213;82;20;-67;-123;-242;-849;289;110;-60;-92;-247;-1206;436;97;-57;-83;-232;-3717;1242;445;0;90;-226;-3785;1032;289;10;169;-220;-901;194;-109;6;157;-221;-646;18;-137;0;160;-234;45;-69;-26;4;168;-221;1172;-328;-16;-10;111;-239;3402;-927;-324;-44;-11;-238;3156;-864;-364;-68;-76;-256;1752;-514;-266;-63;-86;-250;1163;-302;-227;-65;-97;-236;567;-110;-170;-67;-109;-234;221;-7;-99;-64;-102;-234;-12;35;-50;-64;-104;-234;-99;56;2;-66;-111;-236;-2;28;-17;-64;-103;-238;-24;20;2;-62;-98;-233;-113;41;21;-65;-102;-236;-54;31;11;-62;-100;-236;-60;16;6;-62;-102;-239;-40;15;15tiltl;-64;-100;-238;-63;41;17;-59;-80;-238;102;-35;-28;-69;-106;-240;3;44;2;-67;-96;-233;-38;5;-7;-65;-103;-236;-5;17;-1;-65;-98;-237;23;10;-12;-64;-99;-239;3;12;-8;-84;-157;-251;-1312;566;201;-69;-125;-220;-5026;1610;649;29;164;-177;-4324;1004;265;-2;101;-235;-635;90;-185;-5;195;-224;252;-100;-52;-3;154;-229;344;-40;-12;-6;123;-234;475;-85;2;-3;132;-233;1132;-279;-41;0;121;-236;2183;-653;-147;-46;11;-238;3564;-917;-484;-52;-56;-237;2613;-786;-499;-72;-112;-247;1369;-378;-278;-75;-118;-234;357;-94;-105;-72;-123;-233;211;-32;-77;-64;-113;-227;-17;8;-33;-73;-122;-227;-268;93;-4;-63;-95;-228;-5;4;-60;-68;-109;-229;-66;53;-31;-65;-100;-231;31;3;-26;-67;-109;-231;-10;11;-7;-66;-108;-235;-22;18;-6;-67;-109;-231;3;20;-2;-66;-105;-232;65;23;-22tiltl;-65;-106;-231;18;11;-24;-65;-107;-232;8;18;-12;-65;-109;-233;-28;24;-10;-64;-105;-229;63;25;-17;-67;-107;-230;11;0;-1;-65;-112;-234;-20;19;-8;-67;-108;-233;-98;41;7;-69;-112;-242;-429;183;63;-71;-137;-249;-2858;1024;365;-36;-59;-211;-5781;1795;565;0;238;-202;-1648;490;-128;11;127;-217;-1101;125;-271;9;133;-222;-169;-8;-72;-1;147;-223;652;-164;0;0;136;-227;1349;-387;-110;-4;100;-237;2917;-895;-236;-44;-15;-253;3219;-911;-409;-59;-77;-237;2465;-687;-368;-70;-107;-241;1322;-303;-193;-73;-126;-237;31;40;16;-65;-104;-231;-29;30;7;-66;-108;-232;-340;138;39;-61;-95;-237;-90;43;9;-63;-102;-240;-105;52;-13;-63;-98;-241;0;26;-27;-60;-91;-239;19;15;-38;-60;-92;-238;-11;43;-17;-61;-92;-240;-22;14;-14;-61;-94;-241;16;16;-20;-62;-91;-239;40;23;-20tiltl;-61;-95;-242;1;17;-15;-63;-91;-240;-6;31;-4;-63;-93;-239;44;25;-18;-60;-93;-236;0;20;-14;-61;-91;-236;39;21;-3;-62;-93;-238;1;6;-5;-62;-95;-241;-15;32;-6;-71;-160;-263;-1779;617;267;-54;-108;-236;-5060;1457;654;23;82;-196;-4327;864;314;-22;87;-246;-660;40;-265;2;194;-221;-285;-84;-203;1;177;-222;170;-38;29;-3;163;-222;524;-145;137;0;174;-215;2618;-676;53;-35;64;-223;4439;-1154;-389;-68;-81;-243;2357;-541;-265;-74;-93;-250;1542;-318;-247;-58;-98;-239;280;-16;-55;-66;-119;-241;253;26;-24;-58;-90;-234;-13;15;-10;-65;-108;-237;-107;77;18;-62;-89;-235;338;-57;-83;-61;-98;-234;-7;42;-24;-64;-98;-238;128;23;-51;-62;-100;-235;23;43;-30;-62;-104;-234;23;52;-29;-60;-107;-236;-45;36;-9;-61;-101;-233;-15;61;-29;-59;-98;-232;47;17;-46tiltl;-61;-100;-237;6;17;-12;-58;-103;-237;0;23;-9;-58;-101;-236;3;15;-8;-61;-101;-236;13;4;13;-58;-106;-242;-99;50;2;-60;-105;-239;-18;32;-5;-61;-104;-239;-101;41;-4;-63;-145;-254;-2181;648;311;-53;-102;-252;-5498;1621;591;33;211;-195;-2696;486;-78;-22;104;-245;-953;92;-164;-3;156;-229;-138;-1;-111;0;156;-229;185;-4;25;2;147;-227;356;-105;25;-9;147;-232;1225;-291;0;0;118;-231;3266;-896;-220;-40;-26;-245;3352;-865;-367;-63;-86;-246;2118;-595;-310;-65;-98;-241;685;-172;-74;-66;-104;-239;351;-14;-76;-64;-110;-237;147;47;-41;-62;-110;-234;-50;68;-12;-61;-106;-232;-148;84;8;-59;-98;-235;-74;57;-10;-62;-107;-238;-223;123;19;-58;-78;-235;260;-56;-58;-59;-104;-237;-241;99;31;-57;-82;-238;-16;10;-3;-59;-96;-247;1;10;-9;-58;-93;-243;6;21;-1tiltr;-41;-17;-255;46;13;-14;-40;-22;-259;26;10;-21;-40;-24;-261;34;13;-23;-41;-23;-260;-3;15;-28;-38;-24;-261;-22;8;-10;-40;-18;-257;6;13;-6;-41;-16;-254;31;0;-12;-40;-19;-258;12;-12;-6;-39;-19;-261;65;6;-6;-18;44;-217;3085;-997;-466;-58;-52;-129;8473;-1788;-1474;-80;-368;-20;6566;-1318;-1457;-59;-326;40;2876;-398;-627;-34;-258;70;324;177;35;-35;-288;74;-1314;452;373;-46;-312;34;-3705;881;717;-84;-328;-43;-6149;1505;986;-53;-165;-125;-6509;1621;824;-6;24;-202;-2573;811;198;-15;15;-230;-1214;390;171;-26;5;-251;47;15;-56;-27;-5;-258;103;-70;-19;-30;-12;-265;106;-53;-9;-29;-15;-266;98;-28;-38;-25;-16;-263;193;-51;-28;-30;-27;-260;33;-9;11;-33;-22;-260;65;-26;4;-37;-34;-262;3;3;9;-35;-27;-261;43;-5;-8;-33;-26;-260;8;5;-17tiltr;-33;-23;-257;16;-3;-12;-36;-22;-260;29;2;4;-39;-22;-258;12;2;-10;-35;-26;-261;0;17;-16;-35;-26;-258;52;3;-20;-34;-25;-259;74;-12;-19;-31;11;-237;2206;-663;-364;-32;-37;-198;4304;-1299;-707;-48;-233;-95;6037;-1342;-1038;-56;-276;-17;5251;-1242;-1062;-56;-334;23;2753;-547;-554;-40;-274;68;726;-48;-59;-40;-248;74;-312;186;109;-46;-316;64;-1705;422;289;-53;-291;27;-3775;943;604;-73;-317;-37;-6248;1586;1032;-47;-154;-133;-5095;1174;590;-26;-35;-208;-2638;779;188;-22;-21;-241;-816;350;0;-34;-25;-258;-545;139;39;-30;0;-261;-247;13;-2;-33;-5;-265;76;-39;-38;-28;-4;-262;117;-28;-30;-39;-30;-262;102;5;15;-32;-14;-256;221;-61;-19;-32;-15;-257;-32;8;13;-35;-28;-260;21;5;1;-35;-26;-258;-44;32;-2;-36;-24;-260;31;2;-34;-35;-23;-259;-2;22;-28tiltr;-31;-18;-261;32;3;-30;-34;-20;-259;15;7;-15;-32;-19;-258;60;5;-17;-34;-20;-259;13;0;-5;-37;-28;-257;42;14;-8;-37;-24;-261;67;-5;-23;-32;-14;-256;249;-66;-47;-29;-3;-240;1945;-595;-282;-49;-61;-215;2907;-946;-380;-62;-126;-169;5001;-1252;-764;-62;-222;-35;7025;-1624;-1313;-61;-348;41;3654;-706;-746;-48;-278;70;842;-34;-89;-38;-258;84;-505;218;133;-46;-315;69;-1750;428;279;-70;-314;12;-4482;1139;671;-67;-278;-42;-7018;1713;1048;-60;-130;-159;-4772;1300;406;-19;-19;-218;-2064;735;65;-26;-26;-247;-470;282;-42;-24;-19;-254;-211;34;-27;-28;-24;-261;-66;-30;-31;-35;-33;-267;148;-43;-5;-27;-25;-260;71;-17;-15;-33;-38;-260;9;21;7;-32;-32;-257;72;-2;-12;-33;-39;-258;-12;24;-4;-32;-38;-259;1;10;-9;-30;-34;-259;68;-13;-14;-31;-26;-255;38;-11;-8tiltr;-35;-39;-260;-70;20;12;-31;-37;-261;62;3;-22;-32;-33;-257;1;8;-6;-32;-35;-261;42;2;-13;-32;-31;-257;84;-7;-23;-30;-26;-258;304;-81;-42;-33;-28;-251;287;-110;-31;-22;-18;-223;2893;-1024;-414;-54;-93;-118;6257;-1734;-964;-71;-261;-33;6771;-1737;-1213;-59;-274;58;5024;-1147;-944;-31;-275;72;272;82;-11;-38;-299;101;-504;228;95;-42;-313;74;-2749;649;441;-72;-321;17;-4981;1265;751;-73;-283;-68;-7103;1772;1035;-47;-84;-159;-5389;1550;701;-40;-9;-224;-1227;558;132;-17;11;-241;-329;228;-33;-23;2;-252;-60;25;-28;-30;-9;-263;106;-28;-46;-23;0;-261;214;-88;-61;-28;-21;-265;-29;-13;4;-26;-17;-263;86;-31;-9;-33;-21;-262;21;0;-13;-30;-18;-259;49;2;-34;-31;-21;-263;43;18;-33;-32;-21;-259;33;9;-33;-32;-20;-261;63;-8;-34;-32;-20;-260;39;9;-26tiltr;-32;-19;-259;17;12;-11;-33;-19;-260;43;-5;-6;-30;-18;-261;129;-31;-16;-31;-22;-256;430;-121;-57;-34;-29;-255;542;-181;-60;-37;-27;-236;2692;-785;-399;-46;-85;-207;3198;-993;-500;-64;-179;-128;5019;-1188;-783;-76;-273;-27;5199;-1185;-872;-49;-254;45;4354;-909;-759;-55;-333;72;642;32;-93;-39;-273;103;-206;147;83;-57;-313;65;-2518;553;359;-68;-316;24;-4566;1152;661;-69;-269;-39;-6185;1523;870;-70;-187;-163;-5142;1361;491;-10;4;-195;-2944;933;222;-17;5;-234;-531;252;17;-26;5;-254;-240;66;5;-30;-15;-263;43;-36;-32;-25;-6;-261;117;-40;-39;-30;-34;-263;141;-35;-23;-32;-27;-261;41;4;-2;-29;-19;-259;201;-53;-41;-29;-21;-261;-5;12;-10;-31;-31;-260;-7;19;-11;-33;-25;-258;68;12;-29;-30;-21;-258;23;16;-37;-32;-30;-260;19;0;-30;-30;-25;-259;25;9;-25tiltr;-31;-29;-259;13;-2;-22;-33;-29;-260;31;-10;-19;-33;-27;-258;75;-19;-20;-34;-31;-261;2;9;-5;-35;-30;-262;57;3;-8;-36;-31;-261;-17;29;5;-30;-23;-257;261;-62;-37;-22;-11;-238;2242;-737;-314;-41;-95;-206;3526;-1111;-479;-62;-158;-121;5726;-1462;-908;-73;-265;-32;5998;-1490;-1035;-63;-356;74;3431;-739;-586;-41;-253;99;223;108;49;-42;-277;88;-901;345;216;-59;-304;53;-2980;790;379;-86;-333;-15;-5544;1486;778;-58;-205;-89;-6344;1636;832;-48;-96;-169;-3878;1283;437;-25;-17;-218;-1748;727;181;-17;-17;-248;-257;198;-117;-15;2;-254;54;-8;-86;-27;-23;-261;110;-66;-28;-28;-25;-261;162;-70;-19;-29;-33;-261;30;-12;-15;-27;-29;-261;147;-31;-39;-23;-29;-258;-43;23;-2;-26;-28;-259;51;-8;-11;-28;-34;-258;17;13;-8;-30;-39;-259;-20;12;-13;-28;-33;-262;-17;-1;-17tiltr;-28;-34;-259;12;4;-15;-27;-30;-259;-14;7;-14;-26;-30;-259;7;2;-18;-26;-31;-260;9;3;-18;-28;-32;-261;-8;21;-13;-27;-29;-262;59;15;-14;-26;-22;-253;128;-23;-30;-8;16;-230;2677;-901;-421;-39;-91;-175;5535;-1629;-865;-62;-262;-18;6996;-1781;-1203;-58;-292;25;4904;-1166;-824;-58;-358;55;1227;-72;-132;-38;-273;90;-141;225;87;-36;-295;96;-1232;356;209;-55;-301;55;-3325;847;422;-77;-319;-16;-6352;1670;911;-50;-174;-119;-5741;1469;724;-32;-67;-187;-3183;1020;383;-9;4;-233;-1173;426;84;-27;-49;-256;-663;213;58;-25;-24;-262;-71;25;-51;-21;-12;-257;123;-37;-63;-25;-26;-263;207;-41;-53;-23;-21;-260;124;-39;-35;-28;-43;-261;9;2;6;-28;-33;-262;116;-25;-12;-26;-32;-256;56;2;-22;-26;-42;-261;16;4;-21;-26;-36;-261;12;13;-21;-28;-33;-258;43;-7;-28tiltr;-27;-35;-260;-13;12;-16;-26;-41;-261;-26;22;-11;-29;-37;-259;15;11;-16;-28;-41;-257;-32;19;-11;-27;-39;-258;26;12;-14;-24;-27;-252;309;-109;-53;-25;-25;-214;3415;-1081;-523;-38;-104;-144;5145;-1514;-837;-60;-266;-58;6648;-1611;-1090;-66;-312;23;4187;-845;-658;-56;-318;67;1647;-219;-177;-32;-265;103;266;87;40;-29;-283;93;-1386;383;234;-55;-305;53;-3321;974;493;-66;-317;-10;-5737;1300;812;-58;-212;-100;-6701;1727;927;-25;-39;-182;-3723;1182;382;-23;7;-228;-735;419;-51;-16;-8;-249;-357;166;-33;-26;-21;-262;-300;74;-37;-24;-11;-264;216;-37;-100;-16;-8;-260;103;-18;-55;-23;-18;-261;40;-13;-20;-24;-23;-260;86;-38;-6;-20;-19;-262;38;-11;-7;-24;-19;-259;79;-23;-19;-23;-26;-260;39;-13;-7;-27;-27;-260;-5;1;2;-27;-22;-261;11;-12;-16;-25;-22;-262;28;1;-19tiltr;-26;-27;-259;21;8;-10;-23;-21;-259;72;6;-25;-27;-28;-256;-19;18;-6;-27;-26;-261;37;2;-16;-25;-22;-257;166;-19;-22;-16;0;-245;1736;-571;-279;-30;-71;-201;3661;-1215;-528;-56;-127;-128;6891;-1680;-1135;-68;-307;-15;5401;-1354;-948;-52;-264;67;4081;-852;-604;-32;-260;93;589;21;-57;-26;-266;98;-378;194;80;-51;-319;79;-2612;752;407;-70;-334;24;-5637;1433;820;-65;-275;-44;-7727;1964;1123;-15;-49;-148;-4674;1319;578;-27;-53;-242;-897;495;-60;-8;16;-243;-255;131;-43;-27;-27;-263;-260;47;16;-27;-12;-263;161;-76;-78;-23;-22;-265;-39;0;-31;-23;-26;-262;2;-10;2;-25;-24;-263;14;-4;-9;-29;-35;-260;-56;31;1;-28;-27;-261;33;6;-25;-24;-20;-256;74;-4;-34;-26;-26;-258;-9;-9;-25;-31;-25;-261;73;-5;-13;-28;-30;-264;-2;14;-12;-30;-31;-265;48;4;-16tiltr;-26;-27;-261;109;-11;-36;-26;-27;-259;48;-1;-26;-27;-27;-259;97;1;-23;-28;-27;-258;297;-60;-50;-15;0;-241;1864;-583;-304;-39;-98;-232;1584;-557;-167;-45;-93;-158;4864;-1493;-778;-55;-219;-22;7645;-1904;-1364;-62;-313;15;3906;-965;-762;-47;-338;61;1060;-111;-101;-40;-279;78;-879;402;214;-57;-309;43;-2804;839;439;-77;-324;-17;-5179;1437;787;-64;-238;-81;-6270;1694;870;-42;-102;-158;-5082;1589;679;-5;-9;-230;-830;509;-117;-10;-14;-245;-167;151;-82;-24;-42;-256;26;14;-43;-25;-26;-258;174;-69;-92;-24;-33;-260;138;-71;-65;-21;-34;-264;29;-58;-15;-21;-31;-262;38;-29;18;-30;-41;-263;-40;27;24;-29;-45;-259;12;31;-31;-23;-38;-257;-9;20;-33;-26;-43;-259;1;12;-19;-25;-38;-262;88;-2;-26;-26;-33;-258;89;7;-24;-25;-37;-257;10;10;-12;-28;-39;-258;16;9;-2idle;-7;66;-255;1;17;-18;-8;66;-254;-9;14;-10;-10;64;-255;-1;26;-14;-8;66;-256;-10;0;-13;-8;68;-253;46;13;-16;-10;67;-252;16;-5;0;-11;67;-258;11;-6;-21;-7;70;-259;11;24;-3;-8;69;-253;10;19;23;-12;64;-250;50;20;26;-8;61;-253;-15;14;-12;-7;64;-254;14;1;-26;-7;66;-256;11;-7;-30;-10;70;-256;26;17;-21;-9;68;-256;15;29;-7;-7;68;-255;2;14;-10;-6;68;-251;23;30;-12;-7;64;-254;-11;0;5;-8;65;-256;9;6;-22;-7;67;-255;46;11;-27;-7;65;-257;36;-2;-7;-9;67;-257;61;20;-25;-3;65;-255;9;3;-10;-9;69;-256;35;19;-23;-8;66;-256;-16;26;-8;-10;63;-257;10;21;-11;-9;67;-255;2;8;-15;-9;67;-253;14;11;-10;-8;66;-255;16;13;-7;-6;66;-256;22;16;-5idle;-12;66;-258;13;7;2;-8;64;-257;20;20;-7;-10;64;-255;17;18;-8;-8;64;-254;9;5;-14;-8;66;-255;-3;7;-7;-9;62;-256;9;2;-11;-10;66;-259;1;15;-13;-9;64;-257;20;18;-7;-6;65;-255;-2;21;-24;-9;64;-257;18;15;-11;-8;66;-255;22;19;-21;-9;65;-254;-1;11;-10;-11;66;-254;18;16;-3;-10;63;-254;-10;9;-10;-9;64;-257;1;0;-10;-9;64;-258;14;5;-13;-11;64;-256;10;6;-10;-9;65;-257;17;-1;-7;-8;63;-256;5;7;-12;-8;63;-257;8;-3;-10;-11;67;-256;14;2;-21;-8;65;-252;20;10;-9;-8;61;-255;0;-2;-21;-9;64;-256;20;12;-19;-12;67;-255;39;26;-22;-10;67;-255;6;20;-19;-11;67;-255;13;23;-14;-10;61;-255;-2;-2;-13;-11;67;-255;11;6;-33;-11;65;-256;26;6;-18idle;-9;65;-256;18;11;-26;-11;64;-256;4;3;-13;-12;65;-256;17;26;-17;-11;65;-255;33;23;-17;-9;66;-253;21;15;-15;-11;66;-257;11;-7;-16;-10;65;-256;23;10;-11;-11;65;-257;17;10;-7;-12;66;-257;30;15;-5;-8;64;-256;19;12;-6;-8;63;-254;11;-5;2;-12;63;-257;14;13;-29;-9;63;-256;27;17;-13;-11;64;-256;1;5;-16;-10;67;-257;14;14;-15;-11;67;-254;21;18;-12;-10;64;-254;18;16;-7;-11;64;-255;-9;13;-15;-9;65;-257;16;17;-18;-8;67;-256;4;22;-12;-11;66;-255;10;23;-18;-10;65;-255;8;22;-18;-12;64;-253;1;7;-11;-9;67;-256;2;14;-27;-9;67;-255;25;23;1;-10;62;-255;10;8;-15;-10;65;-256;0;11;-22;-9;67;-257;8;13;-6;-11;62;-258;15;10;-13;-10;65;-255;14;20;-18idle;-11;64;-256;19;12;-9;-11;65;-254;15;14;-18;-9;65;-255;19;10;-4;-10;62;-258;9;-5;-10;-8;65;-258;27;13;-16;-10;63;-253;11;9;-12;-12;60;-257;-3;16;-33;-12;63;-256;8;10;-25;-11;64;-257;-2;15;-20;-9;62;-258;9;10;-13;-9;66;-254;8;20;-16;-8;65;-255;6;21;-24;-10;64;-253;-3;22;-24;-10;66;-254;-1;3;-19;-14;66;-255;6;19;-25;-10;65;-256;15;14;-16;-11;65;-255;11;17;-20;-10;64;-254;9;10;-15;-10;64;-254;2;8;-30;-10;65;-253;24;15;-19;-11;63;-256;9;13;-24;-13;67;-256;36;21;-7;-11;66;-255;-8;16;-16;-12;63;-256;-1;25;-3;-12;65;-254;26;22;-5;-13;67;-255;19;22;-19;-8;65;-254;16;17;-6;-11;62;-255;-8;12;-18;-9;64;-257;11;10;-20;-8;66;-256;23;10;-22idle;-10;64;-256;-7;1;-6;-13;63;-257;4;13;-20;-11;64;-253;21;20;-22;-10;65;-255;4;10;-22;-10;67;-256;14;18;-17;-12;63;-254;12;7;-13;-11;67;-256;-16;3;-22;-11;67;-259;-6;27;-1;-11;63;-255;10;10;0;-9;61;-254;15;18;-18;-10;62;-255;1;3;-24;-9;65;-257;24;16;-17;-10;64;-257;17;18;-16;-12;66;-255;8;11;-15;-10;64;-254;5;17;-20;-13;64;-255;7;16;-17;-9;65;-256;3;20;-20;-12;67;-254;10;16;-12;-10;64;-256;3;17;-11;-9;66;-255;7;22;-9;-11;63;-255;-11;-12;-7;-10;69;-257;11;13;-9;-11;64;-260;13;10;7;-10;62;-257;14;20;-8;-9;65;-254;6;15;-18;-8;63;-252;3;11;-18;-11;64;-254;16;5;-18;-10;66;-256;11;2;-23;-12;63;-257;10;14;-18;-13;67;-257;14;14;-5idle;-11;66;-255;16;21;-3;-9;64;-254;13;19;-19;-7;65;-255;-14;-7;-9;-10;64;-257;12;13;-13;-9;67;-255;-1;9;-13;-12;63;-256;15;31;-12;-11;62;-255;10;8;-20;-9;68;-254;11;22;-30;-15;65;-256;-2;0;-2;-12;67;-256;3;3;-5;-9;65;-255;-3;10;-14;-8;65;-255;3;8;-7;-12;64;-254;16;5;-6;-12;64;-255;-2;7;-29;-11;69;-257;18;22;-17;-11;65;-255;17;16;-16;-11;65;-255;6;15;-23;-11;67;-256;-2;11;-14;-13;67;-257;16;22;-16;-11;67;-254;13;17;-5;-11;66;-254;-3;7;-6;-13;64;-256;15;-3;0;-9;65;-257;13;13;-6;-12;64;-256;13;26;-4;-11;63;-254;10;14;-21;-11;66;-256;13;9;-10;-11;65;-257;9;15;-14;-11;66;-254;10;4;-14;-10;66;-255;14;8;-9;-12;65;-256;-9;6;-26idle;-11;67;-256;17;11;-9;-12;66;-258;2;1;-12;-7;66;-254;0;3;21;-14;65;-256;26;8;-6;-5;64;-253;14;25;-6;-12;63;-255;13;14;-10;-13;65;-255;9;3;-29;-9;66;-254;28;8;-18;-9;64;-258;16;-2;-6;-11;64;-257;12;25;-8;-11;61;-255;6;36;-19;-10;65;-256;16;21;-18;-9;64;-256;7;14;-20;-11;66;-255;28;24;-14;-11;66;-255;-8;15;-13;-10;65;-255;6;11;-14;-10;62;-253;9;9;-13;-15;65;-254;23;18;-23;-11;64;-252;13;16;-6;-12;65;-257;-2;-1;-12;-8;64;-257;-2;17;-15;-12;67;-254;29;22;-2;-12;61;-256;-2;6;-14;-11;64;-257;7;7;-26;-10;64;-258;7;10;-26;-9;67;-256;21;17;-13;-12;66;-255;10;16;-11;-11;65;-255;17;20;-7;-11;60;-254;19;2;-33;-13;66;-252;24;6;-38idle;-7;63;-254;-13;-17;-57;-10;69;-256;21;-1;-32;-9;65;-260;12;-13;-21;-10;68;-260;13;38;-29;-11;64;-257;2;38;-10;-14;63;-259;-5;45;-17;-12;67;-251;0;40;-17;-12;62;-253;2;11;-16;-11;67;-252;6;0;-26;-13;63;-256;20;0;-21;-10;68;-256;23;13;-28;-8;71;-256;22;20;-20;-11;67;-256;19;22;-22;-10;66;-252;26;15;-12;-14;67;-254;19;1;-19;-9;65;-259;3;11;-10;-10;62;-256;24;9;-6;-8;74;-254;15;21;-14;-12;64;-255;-6;4;0;-11;66;-256;48;25;3;-13;62;-257;-14;1;-22;-12;62;-256;3;7;-11;-11;67;-252;20;17;-21;-9;68;-254;26;22;-7;-10;65;-252;7;13;-13;-14;65;-255;11;10;-17;-12;67;-253;-3;3;-19;-11;66;-255;28;20;-7;-11;69;-252;14;17;-17;-13;64;-255;-1;0;-9idle;-10;65;-255;16;9;-15;-11;66;-256;17;11;-4;-11;62;-256;-2;2;-13;-12;66;-256;-5;5;-14;-10;65;-255;25;16;-16;-13;67;-251;10;11;-8;-14;62;-257;-9;0;-19;-11;66;-258;3;9;-18;-13;66;-256;19;12;-10;-10;65;-257;2;7;-16;-12;67;-253;2;11;-1;-11;65;-258;9;20;-18;-9;67;-255;13;17;-7;-11;66;-252;3;20;-18;-12;64;-256;7;21;-20;-10;63;-256;-7;10;-12;-12;68;-255;15;15;-15;-12;68;-252;17;9;-12;-12;68;-254;0;7;-24;-12;64;-257;-2;7;8;-14;66;-256;1;13;-5;-10;65;-253;14;11;-9;-14;63;-255;3;4;-23;-14;68;-256;23;9;-14;-14;65;-251;22;17;-13;-11;70;-252;-20;-11;-12;-12;72;-257;32;26;-4;-13;66;-254;10;17;-8;-12;67;-254;1;9;-22;-10;68;-255;7;18;-13idle;-10;67;-252;13;-7;-7;-14;67;-255;1;6;-21;-12;67;-253;25;20;-4;-12;67;-254;3;12;-18;-11;66;-253;7;5;-18;-13;68;-252;23;16;-21;-12;68;-253;12;15;-10;-12;67;-254;23;13;-10;-11;68;-256;2;18;-18;-13;64;-252;7;0;-14;-14;65;-256;-4;-2;-42;-16;62;-253;1;-18;-11;-13;68;-258;13;6;-37;-11;70;-254;12;7;-7;-13;69;-257;-12;28;-32;-11;68;-252;21;37;-7;-15;64;-257;22;32;-16;-16;69;-249;-2;35;-38;-15;68;-252;7;24;-16;-16;66;-254;6;16;-6;-14;68;-254;-3;-10;-1;-13;65;-255;18;6;-11;-13;67;-254;11;10;-11;-15;64;-253;6;4;-6;-13;68;-256;0;5;-17;-14;69;-252;6;12;1;-13;68;-255;11;14;-8;-12;68;-254;-4;12;-3;-10;64;-255;23;22;-3;-12;65;-251;-4;13;-22