Lable,AccX1,AccY1,AccZ1,GyrX1,GyrY1,GyrZ1,AccX2,AccY2,AccZ2,GyrX2,GyrY2,GyrZ2,AccX3,AccY3,AccZ3,GyrX3,GyrY3,GyrZ3,AccX4,AccY4,AccZ4,GyrX4,GyrY4,GyrZ4,AccX5,AccY5,AccZ5,GyrX5,GyrY5,GyrZ5,AccX6,AccY6,AccZ6,GyrX6,GyrY6,GyrZ6,AccX7,AccY7,AccZ7,GyrX7,GyrY7,GyrZ7,AccX8,AccY8,AccZ8,GyrX8,GyrY8,GyrZ8,AccX9,AccY9,AccZ9,GyrX9,GyrY9,GyrZ9,AccX10,AccY10,AccZ10,GyrX10,GyrY10,GyrZ10,AccX11,AccY11,AccZ11,GyrX11,GyrY11,GyrZ11,AccX12,AccY12,AccZ12,GyrX12,GyrY12,GyrZ12,AccX13,AccY13,AccZ13,GyrX13,GyrY13,GyrZ13,AccX14,AccY14,AccZ14,GyrX14,GyrY14,GyrZ14,AccX15,AccY15,AccZ15,GyrX15,GyrY15,GyrZ15,AccX16,AccY16,AccZ16,GyrX16,GyrY16,GyrZ16,AccX17,AccY17,AccZ17,GyrX17,GyrY17,GyrZ17,AccX18,AccY18,AccZ18,GyrX18,GyrY18,GyrZ18,AccX19,AccY19,AccZ19,GyrX19,GyrY19,GyrZ19,AccX20,AccY20,AccZ20,GyrX20,GyrY20,GyrZ20,AccX21,AccY21,AccZ21,GyrX21,GyrY21,GyrZ21,AccX22,AccY22,AccZ22,GyrX22,GyrY22,GyrZ22,AccX23,AccY23,AccZ23,GyrX23,GyrY23,GyrZ23,AccX24,AccY24,AccZ24,GyrX24,GyrY24,GyrZ24,AccX25,AccY25,AccZ25,GyrX25,GyrY25,GyrZ25,AccX26,AccY26,AccZ26,GyrX26,GyrY26,GyrZ26,AccX27,AccY27,AccZ27,GyrX27,GyrY27,GyrZ27,AccX28,AccY28,AccZ28,GyrX28,GyrY28,GyrZ28,AccX29,AccY29,AccZ29,GyrX29,GyrY29,GyrZ29,AccX30,AccY30,AccZ30,GyrX30,GyrY30,GyrZ30
down,0,98,-248,23,19,-21,1,97,-249,15,17,-2,0,92,-247,9,36,13,0,104,-258,-6,90,-45,4,105,-253,-177,109,-64,5,99,-249,-56,68,-16,8,103,-245,30,0,-8,3,102,-248,41,-18,-9,4,96,-252,21,-14,-41,-5,88,-261,33,-7,-46,2,98,-240,47,-18,0,0,96,-265,105,-40,73,-6,89,-242,-87,28,95,3,101,-262,197,-64,-8,0,91,-250,56,-45,-5,0,99,-249,28,-20,-10,-1,91,-249,27,2,-5,-2,92,-248,24,5,-15,2,90,-251,25,5,-27,1,95,-250,29,7,-23,-2,95,-253,7,-1,-18,-1,97,-252,43,9,-16,-1,94,-250,8,23,-13,0,91,-253,12,10,0,-2,90,-252,29,14,-8,1,90,-253,7,27,-17,1,90,-250,28,1,-8,0,92,-249,-1,4,-9,-3,92,-251,18,21,-13,0,93,-251,8,5,-15
down,-2,90,-250,40,15,-14,0,90,-253,2,12,-13,-1,94,-250,43,19,-9,-1,90,-251,12,19,-17,-3,89,-250,30,33,-10,0,89,-255,22,22,-17,-3,88,-254,66,28,-14,-9,79,-219,124,1,-50,0,68,-198,286,-152,-69,-20,49,-194,284,-452,-185,-26,67,-218,-19,-696,-165,-49,65,-250,7,-829,-120,-63,82,-260,253,-808,-184,-75,76,-281,100,-700,-165,-93,91,-310,33,-446,-123,-101,108,-331,3,42,-76,-95,96,-325,136,548,-2,-80,82,-285,48,783,49,-63,67,-250,34,805,80,-48,55,-232,-113,676,102,-30,54,-228,-166,482,112,-25,61,-226,-128,306,96,-17,65,-237,-109,217,65,-12,66,-246,-141,163,34,-10,73,-246,-91,134,11,-5,80,-244,-54,131,-11,0,79,-240,-34,100,-30,0,85,-249,47,55,-30,2,84,-252,16,25,-13,1,84,-250,-3,30,-3
down,2,84,-252,10,17,-7,1,83,-253,31,6,-3,2,86,-253,32,10,-15,2,86,-249,38,17,-10,1,83,-248,26,6,-6,-2,76,-241,57,-15,-23,-7,58,-198,115,-114,-50,-13,39,-171,207,-573,-87,-40,56,-209,-155,-882,-176,-66,76,-253,-16,-1014,-228,-74,87,-279,-13,-822,-218,-82,97,-284,-19,-635,-129,-101,100,-276,130,-477,-11,-113,97,-286,31,-196,3,-112,98,-294,42,168,-1,-103,90,-282,91,436,49,-91,82,-263,26,582,109,-78,73,-257,-46,624,157,-65,68,-247,-27,602,184,-55,70,-243,-46,562,180,-43,69,-238,-44,533,151,-29,72,-234,-33,440,115,-17,71,-229,49,349,97,-13,67,-227,-40,231,53,-8,68,-233,-95,121,10,-5,74,-240,38,60,8,-4,71,-250,-76,28,-40,0,83,-253,-3,4,-39,-5,83,-252,21,14,-29,-2,82,-256,3,13,-29
down,-1,84,-255,18,17,-18,-2,84,-251,12,17,-13,-3,83,-253,11,10,-10,-1,82,-249,89,9,4,-1,78,-249,60,-25,-3,-6,71,-241,60,-48,-29,-18,60,-213,262,-108,-64,-18,25,-181,273,-285,-266,-20,52,-191,123,-745,-280,-58,48,-233,11,-1023,-233,-78,67,-262,165,-1049,-205,-116,57,-302,161,-907,-252,-112,85,-320,-12,-524,-170,-115,81,-323,-14,-57,-74,-109,82,-294,86,260,4,-105,66,-270,-32,460,61,-94,60,-262,-30,506,126,-88,61,-255,-72,564,150,-74,55,-248,-86,567,167,-63,59,-242,-102,523,158,-52,62,-243,-103,488,132,-41,60,-244,-86,446,112,-32,63,-243,-111,415,88,-20,62,-241,-78,351,55,-11,68,-237,-31,269,30,-5,68,-238,-73,170,24,-4,69,-237,20,108,-1,0,71,-237,-66,27,-28,0,82,-250,-15,-5,-19,-1,77,-253,-4,-25,-14
down,-3,83,-254,17,-8,-21,0,80,-254,-4,5,-23,-3,80,-256,-31,-3,-8,-5,77,-255,13,12,-16,0,83,-252,18,16,-13,-5,79,-249,44,-16,24,-9,68,-237,-4,-29,-37,-9,69,-220,73,-136,-48,-16,65,-214,95,-287,-91,-26,51,-229,-62,-426,-164,-42,65,-228,101,-568,-188,-51,67,-243,28,-666,-213,-62,70,-253,92,-694,-189,-82,71,-261,78,-641,-181,-90,83,-271,121,-549,-123,-101,89,-286,48,-371,-59,-105,90,-296,33,-70,1,-107,84,-287,51,257,21,-93,85,-280,-78,447,83,-89,79,-264,-9,559,167,-81,70,-254,-30,616,181,-67,65,-246,-51,613,179,-54,66,-240,-64,562,162,-42,66,-235,-34,484,145,-30,68,-237,-37,411,128,-22,67,-235,-37,330,87,-15,67,-227,-23,238,56,-10,73,-231,-74,133,2,-2,73,-238,-41,80,-19,-5,77,-241,6,29,-33
down,-1,84,-250,-47,-3,-54,-1,85,-252,19,-9,-38,0,87,-257,-5,-9,-29,-6,85,-252,50,17,-20,1,88,-256,9,10,-10,-4,80,-253,32,22,-8,-7,81,-247,22,21,-18,-7,81,-224,92,-39,-33,-12,62,-209,119,-185,-91,-17,66,-203,229,-419,-179,-42,62,-214,260,-603,-193,-54,55,-231,-19,-741,-238,-73,60,-244,153,-803,-223,-80,62,-263,-62,-777,-247,-99,64,-279,-173,-672,-264,-106,83,-277,-42,-546,-208,-112,98,-288,-99,-293,-121,-117,104,-294,23,1,-8,-120,95,-285,60,300,85,-114,85,-266,-22,532,134,-102,81,-256,-39,643,184,-93,72,-253,0,708,202,-80,72,-244,-34,723,193,-60,69,-242,-57,684,182,-44,72,-238,-19,610,182,-31,71,-235,-31,512,174,-21,68,-225,-5,394,134,-13,69,-219,-49,264,101,-10,72,-224,-48,133,46,-7,77,-228,-31,95,-27
down,1,79,-238,-54,19,-52,1,88,-250,-8,-29,-36,1,85,-255,-3,-20,-42,1,89,-259,2,-4,-28,1,89,-256,11,26,-12,1,84,-251,9,36,-14,-3,80,-229,28,9,-49,-9,71,-203,195,-151,-85,-19,70,-194,223,-361,-113,-34,38,-214,-104,-586,-227,-50,58,-223,138,-789,-256,-57,54,-236,-48,-962,-280,-92,84,-250,-24,-1002,-263,-104,111,-282,-354,-812,-167,-121,105,-297,-121,-488,-148,-116,115,-287,17,-185,-62,-122,116,-284,97,170,22,-115,109,-274,56,443,81,-106,96,-271,81,619,144,-94,88,-258,101,735,199,-82,75,-245,56,745,210,-63,74,-236,61,692,195,-54,72,-230,23,607,165,-37,80,-226,3,475,166,-26,72,-227,-25,366,143,-18,71,-232,-21,270,92,-10,72,-231,-27,191,48,-6,77,-236,-53,121,20,-4,80,-239,23,57,0,-3,82,-238,-16,18,-19
down,-1,91,-245,-3,-21,-18,-2,89,-254,-4,-17,-29,-2,89,-255,-6,8,-21,-4,89,-256,0,34,-16,0,89,-251,-7,44,-15,0,83,-251,-3,31,-11,-1,87,-244,12,-1,-14,-10,75,-221,69,-46,-50,-18,61,-194,89,-195,-164,-19,63,-197,-71,-458,-275,-32,62,-220,-95,-674,-295,-47,71,-232,64,-902,-250,-75,92,-257,-35,-949,-256,-102,75,-277,-62,-804,-263,-114,99,-274,11,-602,-210,-107,108,-277,-59,-328,-161,-112,104,-259,-86,-145,-106,-126,115,-273,35,42,-27,-114,115,-286,-15,307,74,-116,100,-275,71,548,160,-102,96,-251,96,715,216,-88,83,-238,37,723,231,-73,77,-230,-29,666,222,-60,74,-222,-29,546,197,-44,76,-222,-95,423,155,-36,85,-223,-39,292,164,-28,84,-233,-55,216,124,-25,81,-235,-35,163,79,-19,86,-232,-17,127,37,-15,86,-236,-7,78,10
down,-12,89,-242,7,19,-4,-12,92,-247,21,11,-15,-11,91,-246,36,0,-23,-12,97,-247,18,-19,-22,-16,98,-250,34,5,-9,-20,89,-243,-16,27,-52,-27,83,-211,130,-1,-103,-26,58,-193,20,-210,-184,-33,64,-189,87,-545,-238,-57,87,-194,18,-836,-266,-76,93,-234,-147,-958,-221,-101,103,-265,-232,-876,-181,-116,101,-282,-44,-649,-214,-111,108,-282,-21,-387,-164,-112,110,-265,11,-137,-109,-114,108,-258,67,-33,-16,-120,108,-258,86,159,48,-116,101,-258,77,345,109,-108,98,-253,17,478,145,-101,95,-246,50,545,175,-89,92,-236,17,552,201,-75,89,-232,53,523,194,-67,86,-232,71,501,177,-57,90,-232,54,468,158,-45,83,-233,68,445,110,-37,89,-229,61,396,86,-29,83,-229,3,306,51,-22,88,-228,19,229,27,-16,83,-230,-37,159,-2,-11,87,-235,-6,79,-17
down,-12,85,-248,-32,26,-18,-10,93,-243,20,23,-29,-8,93,-249,19,-18,-26,-9,95,-252,36,1,-36,-9,97,-251,-3,26,-36,-9,95,-251,31,25,-17,-17,87,-229,-2,35,-50,-20,71,-198,106,-45,-154,-33,55,-176,127,-364,-257,-39,71,-182,102,-735,-306,-48,87,-228,55,-1038,-212,-80,84,-273,-109,-880,-263,-96,86,-279,-76,-693,-265,-106,105,-266,-56,-591,-213,-119,125,-281,34,-339,-133,-122,126,-292,45,42,-28,-118,112,-279,82,390,50,-107,100,-259,102,550,114,-96,91,-250,28,627,160,-86,84,-250,27,648,206,-72,81,-241,12,643,205,-61,78,-235,3,606,196,-46,83,-228,-10,518,183,-33,73,-226,40,398,158,-27,73,-224,-11,309,92,-21,76,-229,-25,207,55,-17,81,-231,-35,157,0,-11,84,-239,-72,87,-15,-7,89,-241,-7,27,3,-9,91,-245,-6,7,-14
down,-5,92,-250,-22,12,-16,-5,93,-249,19,-19,8,-9,87,-247,10,-1,-5,-11,86,-227,60,-39,-26,-14,75,-209,4,-160,-58,-25,71,-207,94,-347,-133,-35,59,-211,107,-504,-251,-49,62,-205,277,-754,-275,-75,68,-226,179,-990,-262,-96,82,-258,-72,-965,-284,-107,92,-276,-167,-764,-276,-126,88,-269,-86,-564,-256,-129,102,-248,-117,-420,-163,-127,106,-257,-101,-267,-87,-140,114,-285,2,34,16,-135,114,-285,16,415,109,-131,101,-271,72,696,183,-118,92,-254,-9,829,236,-103,85,-245,-30,872,268,-82,79,-233,-28,821,276,-64,76,-231,-127,725,249,-47,82,-221,-73,600,243,-29,84,-219,-109,455,216,-19,85,-217,20,354,180,-10,81,-217,-23,202,130,-12,81,-219,-30,103,79,-4,93,-232,-90,60,5,-1,95,-239,-1,10,-6,-4,99,-247,-14,5,-25,0,103,-250,-29,12,-39
down,-1,100,-253,32,25,-29,0,104,-249,34,29,-23,2,103,-249,-7,3,-21,-3,102,-243,54,2,-12,-2,103,-237,17,-10,-31,-6,88,-227,80,-44,-67,-21,81,-203,311,-159,-118,-23,68,-200,-46,-276,-295,-29,57,-203,77,-535,-370,-54,65,-204,93,-837,-399,-69,93,-227,-230,-984,-369,-93,120,-263,39,-973,-258,-108,114,-280,-113,-709,-219,-125,93,-272,-113,-432,-228,-120,106,-260,88,-362,-132,-129,132,-276,43,-85,-29,-130,129,-281,88,264,92,-123,122,-270,-11,529,182,-113,105,-255,48,692,277,-101,99,-243,71,736,334,-82,89,-236,-1,709,355,-70,83,-231,-21,672,332,-51,85,-221,-10,606,273,-35,83,-220,66,459,243,-24,86,-217,1,347,198,-15,83,-220,-17,242,124,-11,89,-220,1,198,53,-2,93,-223,-57,101,3,0,97,-236,25,9,-4,-3,101,-245,11,6,-24
down,-2,108,-243,-82,37,-54,-1,104,-245,93,8,-12,0,105,-249,-10,19,-20,-1,101,-245,-9,22,-25,1,100,-247,26,-6,-29,-2,101,-240,16,-15,-29,-8,99,-233,74,-23,-53,-18,74,-204,-57,-122,-142,-21,66,-185,-101,-275,-356,-32,68,-182,24,-605,-392,-48,94,-219,-181,-915,-394,-80,115,-252,116,-955,-299,-97,131,-270,126,-735,-254,-105,127,-265,17,-478,-221,-101,100,-275,-253,-270,-221,-106,113,-262,49,-146,-134,-111,124,-260,147,47,-36,-106,127,-262,102,239,58,-105,119,-263,49,435,139,-98,119,-261,114,584,222,-87,103,-252,25,681,273,-74,95,-239,89,681,307,-59,88,-229,82,634,286,-43,84,-223,49,548,234,-30,81,-218,48,440,194,-19,85,-209,42,290,131,-15,90,-217,25,161,90,-12,86,-229,63,46,50,-10,91,-236,21,25,16,-5,90,-245,-25,-1,1
down,-4,94,-247,18,-11,-19,-5,100,-248,37,3,-29,-7,99,-251,6,10,-14,-4,102,-248,17,20,-19,-8,94,-249,-20,29,-13,-8,96,-244,32,10,-16,-13,90,-232,46,-3,-35,-12,90,-217,101,-84,-42,-17,75,-205,272,-248,-99,-26,58,-202,240,-448,-189,-51,59,-203,204,-640,-235,-57,73,-220,25,-776,-289,-74,78,-252,-59,-892,-262,-105,79,-265,-28,-820,-244,-104,97,-282,-118,-616,-228,-116,84,-274,-109,-457,-127,-123,102,-274,83,-258,-73,-124,111,-285,47,58,-1,-123,102,-285,6,375,90,-118,97,-275,-5,607,173,-104,85,-260,38,738,218,-94,81,-250,27,816,234,-77,80,-237,-16,789,232,-59,76,-234,-51,716,229,-44,81,-221,24,616,215,-31,68,-211,-53,444,160,-21,72,-204,-30,256,116,-9,73,-211,-100,20,45,-11,81,-237,-31,-1,-24,-11,92,-246,22,-8,-27
down,-8,92,-251,1,10,-39,-6,102,-250,-12,4,-31,-10,92,-252,15,19,-19,-10,90,-251,-55,39,-28,-6,89,-248,17,28,-23,-9,89,-236,34,-15,-23,-11,86,-220,28,-69,-70,-17,73,-195,104,-281,-117,-40,52,-192,39,-506,-247,-55,82,-210,-7,-667,-281,-65,80,-220,-88,-806,-302,-81,81,-243,-125,-907,-306,-104,96,-266,-328,-846,-322,-110,130,-275,-165,-609,-250,-122,131,-271,-127,-326,-182,-123,118,-265,55,-85,-79,-126,126,-253,108,126,19,-122,115,-258,77,309,98,-119,113,-258,99,474,183,-110,102,-253,155,609,248,-97,92,-246,31,701,250,-84,85,-238,70,714,239,-65,82,-235,53,653,219,-56,85,-225,80,569,212,-39,81,-224,33,491,168,-28,82,-212,-1,360,124,-20,79,-214,-59,193,80,-15,85,-226,0,99,25,-13,87,-240,35,57,0,-8,92,-244,-21,19,-15
down,-6,95,-253,26,13,-16,-8,93,-252,7,11,-18,-6,93,-250,18,21,-16,-11,97,-249,47,25,-22,-10,99,-246,14,39,-15,-10,98,-248,-1,31,-15,-10,94,-245,-9,5,-17,-10,84,-229,6,-18,-43,-17,75,-196,65,-179,-92,-27,76,-181,68,-433,-165,-37,71,-200,-198,-685,-212,-61,66,-226,7,-1064,-154,-105,76,-243,187,-1063,-256,-112,103,-264,111,-827,-320,-121,119,-283,32,-553,-256,-116,100,-287,-137,-243,-152,-119,113,-261,18,-95,-73,-120,115,-273,16,101,28,-123,106,-282,95,384,107,-114,95,-273,130,650,139,-104,97,-260,102,794,185,-88,81,-252,21,844,208,-73,80,-236,54,817,206,-54,74,-230,-17,727,211,-39,67,-228,73,584,189,-24,68,-221,-60,472,136,-14,70,-211,-83,311,79,-5,82,-214,-31,148,34,-1,82,-228,-2,43,6,1,80,-244,-40,1,-26
down,2,90,-250,16,-13,-29,2,90,-251,7,-13,-35,1,93,-248,12,-39,-27,-2,91,-252,21,-31,-22,-1,94,-254,-12,-22,-9,0,93,-254,7,6,-1,-7,87,-250,-3,16,-20,-11,80,-224,14,-17,-60,-17,78,-192,58,-168,-118,-21,55,-205,-145,-393,-207,-37,64,-208,52,-631,-297,-46,70,-221,-54,-766,-448,-75,78,-241,99,-983,-371,-102,109,-261,-66,-862,-372,-109,117,-280,-47,-626,-246,-107,123,-289,-76,-373,-135,-116,106,-291,-103,-56,-82,-115,119,-286,169,242,14,-106,115,-281,-14,522,112,-103,106,-263,74,650,231,-90,95,-245,49,685,294,-76,85,-232,60,650,304,-66,83,-229,-1,577,279,-51,83,-225,22,531,224,-38,81,-224,94,431,199,-24,81,-223,57,336,151,-17,76,-223,90,216,103,-15,73,-229,21,109,66,-10,80,-235,-26,72,15,-7,83,-240,-45,28,-4
down,-2,90,-246,-32,-12,-14,-4,87,-256,-18,-13,-13,-5,89,-255,-21,17,-21,-8,89,-249,37,35,-36,-6,96,-251,86,11,-9,-5,87,-250,1,15,-25,-9,81,-241,51,18,-46,-15,69,-215,13,-54,-116,-15,80,-201,37,-211,-167,-21,47,-216,-47,-438,-244,-53,68,-203,45,-659,-320,-68,69,-206,162,-880,-331,-78,91,-241,-123,-974,-263,-102,81,-278,-262,-922,-229,-112,90,-293,-188,-702,-206,-135,113,-264,16,-377,-186,-128,114,-252,-119,-160,-153,-124,114,-267,-9,43,-31,-123,115,-277,45,263,88,-125,113,-282,71,504,214,-118,96,-271,126,796,240,-101,86,-256,101,897,275,-86,75,-238,109,905,273,-67,73,-224,80,804,248,-47,71,-215,22,672,228,-34,72,-212,-23,514,180,-21,67,-214,-73,337,115,-15,77,-213,-14,201,56,-4,83,-225,-63,90,10,-3,82,-239,19,14,2
down,0,87,-248,-18,-2,-24,2,88,-253,-32,-16,-23,2,92,-258,3,12,-35,-1,88,-256,7,41,-34,1,89,-250,6,38,-28,-2,92,-248,18,21,-22,0,92,-245,-30,12,-18,0,77,-226,-31,-40,-56,-11,72,-201,49,-223,-93,-25,65,-192,-46,-433,-211,-37,59,-193,-131,-665,-304,-57,60,-202,-37,-957,-420,-81,86,-223,-81,-1197,-394,-113,115,-257,36,-1260,-243,-132,113,-300,-258,-920,-191,-142,128,-293,29,-393,-202,-137,128,-267,3,-89,-119,-137,132,-260,113,168,16,-137,127,-258,175,413,134,-133,121,-257,136,619,245,-122,94,-257,56,804,274,-105,87,-248,131,886,274,-87,88,-236,123,864,297,-68,72,-233,22,844,259,-47,71,-223,122,751,210,-33,69,-212,40,600,142,-13,70,-198,-22,366,105,-9,70,-212,-92,159,27,-2,79,-228,-36,55,-25,0,86,-241,-25,-6,-32
down,3,88,-250,-29,-23,-49,2,98,-254,33,-11,-37,0,95,-253,-6,-3,-32,-2,99,-254,22,5,-9,0,94,-250,32,22,-16,-4,88,-243,-25,-14,-20,-8,81,-225,76,-44,-50,-17,72,-203,74,-189,-124,-16,60,-205,-11,-411,-198,-30,61,-222,70,-670,-245,-65,84,-218,232,-811,-221,-68,78,-239,11,-850,-245,-86,78,-271,-242,-805,-196,-106,83,-280,-2,-668,-171,-117,96,-264,21,-518,-107,-114,100,-256,-135,-306,-117,-120,108,-271,15,-81,-55,-122,110,-275,47,167,25,-119,109,-270,48,427,122,-111,100,-259,31,585,172,-104,89,-257,59,699,211,-88,84,-251,35,761,229,-72,72,-242,-41,744,220,-56,72,-233,-4,677,187,-41,71,-224,27,556,147,-26,74,-220,-47,431,107,-18,78,-223,-30,298,73,-11,79,-226,-50,183,45,-6,83,-234,-70,92,10,-1,87,-241,-41,47,-30
down,0,89,-250,-16,19,-23,0,90,-254,-13,1,-32,1,95,-253,13,1,-23,0,96,-253,22,4,-17,-2,98,-250,38,22,-13,-2,96,-243,22,23,-9,-5,94,-234,4,-36,-5,-10,85,-213,72,-142,-30,-24,72,-189,39,-331,-103,-23,70,-191,-34,-592,-184,-42,77,-223,-280,-819,-223,-63,81,-252,-17,-813,-316,-89,93,-246,75,-707,-374,-103,98,-245,117,-750,-320,-110,120,-258,-23,-605,-226,-121,124,-272,-58,-405,-145,-128,113,-275,49,-92,-78,-117,116,-271,-15,96,30,-120,118,-282,48,385,133,-120,106,-269,129,621,196,-102,94,-256,83,777,217,-87,86,-240,93,821,220,-70,87,-225,116,756,216,-56,81,-222,19,664,209,-39,82,-223,36,518,210,-28,78,-221,70,400,185,-21,70,-221,9,293,118,-14,74,-222,-41,159,69,-6,80,-227,-39,78,9,0,83,-243,-18,-1,7
down,-2,85,-250,-43,3,-27,0,93,-252,22,-7,-16,-2,92,-253,29,38,-19,-4,90,-249,20,13,-8,-5,92,-245,7,14,-12,-4,89,-241,-21,-1,-29,-7,88,-227,12,-56,-43,-23,71,-197,145,-162,-105,-33,68,-185,38,-384,-245,-28,59,-215,97,-638,-342,-50,86,-234,22,-904,-208,-76,83,-252,23,-936,-193,-103,68,-247,240,-818,-232,-95,113,-259,-128,-786,-138,-125,82,-284,-207,-574,-38,-119,91,-281,11,-325,-49,-121,98,-299,-45,-14,-15,-122,103,-295,146,355,59,-121,95,-275,97,663,71,-107,89,-257,113,798,105,-95,83,-239,92,826,125,-78,80,-231,4,799,142,-64,79,-231,6,701,170,-48,86,-227,15,612,176,-36,77,-228,-8,488,190,-28,80,-221,-50,441,124,-14,74,-217,-158,332,70,-3,83,-222,-83,139,76,-1,73,-232,-97,76,20,2,82,-243,-86,-2,-9
down,2,84,-247,-1,-26,-35,2,93,-255,11,-41,-21,3,97,-254,-6,-9,-40,2,92,-256,26,1,-26,-2,100,-246,85,19,-21,-4,88,-236,-17,11,-52,-11,82,-207,51,-56,-117,-14,71,-192,68,-279,-217,-34,67,-190,185,-554,-269,-42,78,-205,58,-725,-367,-62,90,-229,-128,-916,-333,-79,92,-262,-71,-999,-260,-95,99,-279,-56,-936,-175,-122,111,-282,46,-690,-95,-126,104,-267,-62,-315,-85,-121,100,-281,-17,-98,-42,-120,105,-288,46,188,42,-120,102,-281,-10,470,82,-110,101,-270,88,666,165,-101,98,-256,98,802,211,-85,79,-242,48,844,210,-71,81,-233,40,799,199,-57,74,-223,-42,704,149,-36,74,-213,32,574,109,-21,75,-215,-77,374,92,-14,79,-214,68,192,79,-10,78,-227,-64,108,-3,-5,91,-236,-27,51,-11,-3,90,-243,19,3,-8,-6,92,-248,-22,-4,-21
down,-1,96,-252,23,-12,-9,-3,95,-255,6,-14,-4,-6,94,-252,-1,24,-9,-4,89,-249,40,10,-12,-8,92,-232,86,-15,-30,-12,82,-207,81,-104,-77,-26,68,-184,241,-339,-129,-31,75,-196,20,-617,-187,-54,65,-230,-92,-746,-178,-64,67,-244,47,-874,-251,-81,85,-247,147,-963,-227,-113,99,-253,58,-900,-151,-127,99,-266,6,-712,-119,-131,92,-275,-51,-422,-100,-129,94,-272,43,-159,-48,-126,94,-263,-12,73,-17,-127,90,-259,23,271,22,-118,94,-265,24,439,91,-121,99,-264,168,622,191,-109,88,-260,-7,766,219,-96,80,-249,28,807,240,-77,77,-235,-10,783,236,-63,68,-229,-33,703,207,-45,70,-219,16,612,159,-30,67,-217,-48,477,116,-22,70,-216,-74,317,51,-14,79,-217,-37,193,18,-8,81,-229,-86,99,-33,1,87,-249,-9,36,-31,-3,86,-248,-49,46,-53
down,0,96,-249,5,25,-31,0,90,-252,-12,21,-28,0,93,-253,12,19,-18,0,91,-246,43,22,-30,-1,91,-249,19,-5,-14,-6,89,-239,52,7,-37,-7,88,-226,47,-61,-56,-13,78,-196,220,-225,-74,-15,43,-187,315,-547,-148,-44,84,-191,-27,-790,-233,-73,58,-233,-11,-889,-270,-73,83,-258,24,-893,-272,-101,102,-266,-67,-815,-204,-107,74,-282,-382,-708,-220,-119,119,-255,-42,-565,-176,-129,104,-265,-35,-277,-159,-128,112,-279,17,21,-99,-131,116,-282,57,321,-2,-120,113,-275,95,586,97,-116,88,-261,10,740,139,-100,88,-250,13,805,187,-86,81,-236,-57,837,182,-70,80,-230,-12,771,159,-52,87,-219,18,653,157,-36,83,-216,2,513,134,-25,87,-211,14,379,128,-15,81,-211,19,240,103,-14,79,-220,-56,147,16,-7,85,-235,0,61,-3,2,92,-244,15,24,-22
down,0,89,-250,34,18,-33,-1,101,-248,28,7,-26,-2,101,-250,35,38,-18,-1,98,-247,7,7,-6,-5,94,-248,16,26,-8,-2,93,-243,-18,-5,-16,-6,84,-233,39,-35,-38,-23,81,-202,58,-140,-97,-25,62,-171,217,-359,-196,-31,80,-187,-31,-799,-201,-61,71,-224,-69,-929,-234,-76,95,-259,21,-917,-249,-98,80,-266,66,-849,-258,-119,89,-254,133,-697,-258,-118,111,-255,-44,-543,-226,-124,97,-267,-71,-376,-169,-128,99,-269,26,-203,-77,-127,119,-286,49,99,55,-130,97,-285,70,448,106,-124,105,-262,160,697,160,-111,92,-247,91,823,183,-97,82,-242,128,844,214,-82,78,-230,22,775,211,-64,73,-229,-47,664,203,-46,73,-221,30,549,170,-30,74,-221,57,423,129,-22,68,-226,69,305,95,-21,65,-224,9,228,37,-10,75,-228,-41,145,-17,-8,81,-235,-20,31,-8
down,-10,82,-241,20,-17,-7,-9,82,-251,32,-25,-14,-6,81,-256,-6,-18,-18,-9,83,-256,5,20,-25,-6,82,-250,-2,35,-41,-14,81,-239,19,-1,-45,-14,74,-218,-25,-62,-82,-20,69,-205,-19,-235,-129,-34,54,-197,52,-444,-217,-37,82,-206,-44,-683,-270,-67,63,-215,218,-979,-184,-80,101,-242,64,-1010,-154,-110,67,-277,-241,-840,-153,-118,92,-270,81,-753,-141,-123,104,-268,-428,-446,-100,-134,102,-271,131,-290,-69,-131,105,-280,37,8,-10,-133,104,-284,48,354,50,-124,106,-276,-24,662,115,-117,90,-266,50,833,163,-99,83,-247,43,874,207,-83,77,-231,46,829,209,-64,84,-216,48,719,206,-49,75,-217,-12,597,159,-36,81,-218,9,459,129,-30,79,-220,39,350,100,-22,84,-217,15,229,55,-9,79,-227,-32,116,15,-8,83,-235,-3,49,-1,-6,83,-245,-28,16,-29
down,-4,88,-251,30,-3,-30,-2,91,-251,-2,-1,-34,-6,92,-255,6,7,-32,-9,95,-249,39,8,-10,-10,92,-246,29,19,-21,-7,92,-234,4,-1,-27,-9,86,-222,44,-96,-24,-16,74,-204,37,-275,-66,-30,65,-198,-1,-480,-141,-47,79,-186,365,-798,-96,-63,73,-218,-102,-1027,-72,-88,70,-260,-76,-908,-180,-101,78,-265,29,-845,-247,-120,98,-258,80,-703,-247,-133,98,-255,39,-541,-174,-135,90,-254,-46,-354,-155,-135,98,-265,4,-195,-47,-139,100,-284,-3,125,11,-137,97,-282,40,479,53,-130,90,-266,46,715,110,-122,87,-251,49,853,139,-104,81,-242,-8,882,155,-82,75,-235,4,845,176,-66,81,-230,-73,729,195,-53,77,-230,-55,661,168,-38,78,-223,-7,583,135,-17,77,-212,-91,461,77,-11,80,-211,-86,287,57,-3,84,-223,-110,161,-2,-3,81,-233,-41,86,-17
down,5,87,-242,-3,19,-34,5,95,-246,38,3,-45,3,96,-252,-10,10,-45,1,100,-250,8,21,-23,1,102,-249,-30,6,-15,1,97,-249,1,37,-20,1,91,-231,28,-5,-30,-4,90,-212,5,-71,-67,-20,67,-190,20,-254,-165,-22,77,-192,-16,-522,-268,-47,73,-209,-35,-772,-292,-63,108,-220,153,-811,-307,-80,116,-245,25,-899,-240,-89,103,-273,-35,-788,-200,-107,78,-258,246,-759,-183,-111,133,-259,-132,-482,-163,-117,109,-283,-12,-205,-68,-124,105,-289,35,81,16,-118,106,-290,-8,433,35,-111,99,-277,55,670,86,-98,95,-261,77,789,138,-85,88,-247,34,831,164,-74,94,-231,-1,801,185,-61,81,-230,-39,701,164,-41,87,-216,71,572,120,-23,91,-204,-34,458,107,-24,84,-212,86,281,105,-11,71,-222,23,177,62,-3,84,-227,-46,53,16,-4,88,-238,13,14,-8
down,-1,92,-244,-43,19,-36,-2,89,-254,-63,-5,-23,-1,95,-255,-30,20,-26,-2,90,-254,-23,5,-3,-1,99,-246,15,19,0,-3,92,-246,47,18,-4,-4,84,-236,2,-30,-26,-17,85,-215,82,-70,-97,-20,66,-202,-65,-205,-194,-30,75,-185,-16,-462,-281,-40,82,-194,39,-761,-329,-65,90,-224,122,-936,-338,-80,99,-257,34,-998,-258,-96,97,-279,-19,-864,-198,-115,77,-281,-36,-656,-110,-126,89,-254,208,-498,-68,-127,98,-257,-17,-255,-85,-129,101,-281,7,-16,-1,-130,111,-287,58,330,67,-123,103,-274,125,612,144,-114,94,-262,33,770,199,-98,93,-255,-11,836,261,-88,80,-246,-28,850,283,-68,79,-235,-52,795,254,-51,76,-223,-20,685,244,-35,79,-209,86,548,173,-19,72,-212,-53,411,124,-12,73,-213,-85,256,43,1,84,-219,-49,94,23,1,82,-232,-54,-1,0
down,1,95,-242,-14,10,-44,3,99,-246,10,-25,-46,3,102,-255,31,-3,-33,1,99,-253,26,19,-13,1,99,-249,-10,27,-17,2,93,-249,-53,35,-24,0,89,-240,27,9,-17,-4,90,-222,29,-48,-40,-10,81,-203,14,-211,-75,-22,79,-194,45,-397,-143,-28,70,-205,21,-624,-221,-53,57,-224,37,-865,-282,-81,85,-237,172,-921,-297,-90,105,-244,88,-858,-287,-105,102,-261,-167,-714,-216,-114,95,-273,-72,-605,-170,-119,104,-277,-25,-432,-82,-125,114,-284,72,-169,-2,-127,110,-277,92,174,44,-122,107,-275,0,461,102,-118,108,-264,94,656,191,-105,104,-257,60,765,265,-95,92,-250,-49,819,289,-77,87,-236,-54,807,295,-63,81,-234,-44,771,255,-44,80,-222,-20,675,198,-29,75,-215,30,509,153,-11,73,-209,17,352,81,-8,75,-212,-91,182,20,0,86,-219,-5,87,-55
down,6,92,-236,-29,10,-59,6,103,-249,3,-11,-56,4,103,-249,-12,4,-53,1,112,-246,41,10,-18,1,104,-248,-23,19,-9,2,100,-246,13,7,3,6,92,-245,-23,-9,-32,0,96,-231,50,-41,-41,-11,84,-206,151,-120,-87,-22,66,-191,10,-266,-220,-17,59,-203,-79,-510,-366,-43,75,-200,101,-836,-348,-67,98,-210,158,-901,-357,-87,94,-245,-450,-919,-386,-97,120,-263,-412,-936,-279,-117,116,-293,-267,-799,-179,-132,135,-285,158,-420,-184,-124,131,-271,117,-24,-86,-126,126,-255,104,219,4,-122,114,-255,114,394,77,-112,113,-262,26,542,159,-110,117,-255,140,678,232,-97,102,-251,125,783,255,-83,95,-243,121,817,237,-64,88,-227,182,774,203,-47,82,-217,86,690,196,-30,82,-214,13,551,139,-19,84,-212,-9,348,144,-16,74,-218,-71,212,96,-9,82,-225,-56,89,33
down,-1,89,-239,-39,65,-5,0,90,-245,6,46,-19,2,96,-247,0,32,-30,4,96,-245,26,4,-30,1,99,-249,-7,-19,-30,2,98,-250,10,17,-26,1,100,-246,-3,-12,-24,-3,95,-245,23,-26,-13,-3,94,-235,26,-28,-43,-5,84,-222,8,-81,-102,-21,71,-200,71,-221,-184,-23,86,-203,-19,-410,-238,-38,90,-213,73,-624,-227,-46,67,-231,-70,-748,-308,-71,101,-228,29,-857,-280,-97,96,-241,176,-944,-187,-114,99,-258,4,-885,-166,-126,108,-275,-88,-699,-142,-125,109,-290,134,-306,-111,-123,117,-287,105,36,-23,-125,114,-280,91,343,74,-120,105,-265,109,592,155,-113,94,-263,-51,756,212,-105,89,-245,21,808,243,-86,86,-230,-90,785,224,-67,73,-225,-95,728,184,-47,84,-220,-30,597,151,-35,82,-220,-33,438,132,-25,86,-223,11,301,135,-15,87,-217,18,228,71
down,-12,88,-222,31,138,42,-11,87,-233,-28,63,11,-9,95,-236,-41,45,-30,-3,96,-245,-1,0,-19,-5,98,-253,32,-11,-7,-6,97,-248,0,0,-19,-10,96,-236,28,-9,-23,-11,88,-217,-22,-89,-46,-28,75,-188,93,-271,-126,-36,75,-187,68,-526,-205,-45,88,-214,-17,-755,-234,-67,67,-243,40,-837,-294,-91,90,-249,98,-899,-295,-103,105,-257,166,-823,-262,-115,123,-269,65,-628,-191,-119,106,-283,-28,-326,-114,-118,102,-280,21,-39,-37,-119,98,-274,54,178,40,-114,99,-270,25,408,83,-112,108,-268,114,617,185,-101,95,-264,-36,798,217,-95,87,-241,112,884,233,-72,73,-218,19,863,158,-46,72,-194,55,642,135,-11,87,-191,-78,388,82,5,103,-195,357,235,94,18,109,-197,496,195,222,26,94,-246,296,-12,345,20,92,-216,540,-195,465,-13,42,-251,-197,-355,495
down,-38,46,-242,-123,-437,513,-80,37,-261,136,-513,374,-76,26,-262,358,-266,-39,-60,49,-268,56,-182,-80,-18,66,-233,171,370,-76,-49,115,-244,402,74,-105,-51,-10,-268,223,198,-3,-24,32,-263,329,152,-36,-21,23,-263,66,143,-44,-24,7,-268,143,66,-41,-23,7,-265,45,50,-29,,,,,,,,,,,,,,,,,,,,,,,,,,,,,,,,,,,,,,,,,,,,,,,,,,,,,,,,,,,,,,,,,,,,,,,,,,,,,,,,,,,,,,,,,,,,,,,,,,,,,,,,,,,,,,,,,,
