Lable,AccX1,AccY1,AccZ1,GyrX1,GyrY1,GyrZ1,AccX2,AccY2,AccZ2,GyrX2,GyrY2,GyrZ2,AccX3,AccY3,AccZ3,GyrX3,GyrY3,GyrZ3,AccX4,AccY4,AccZ4,GyrX4,GyrY4,GyrZ4,AccX5,AccY5,AccZ5,GyrX5,GyrY5,GyrZ5,AccX6,AccY6,AccZ6,GyrX6,GyrY6,GyrZ6,AccX7,AccY7,AccZ7,GyrX7,GyrY7,GyrZ7,AccX8,AccY8,AccZ8,GyrX8,GyrY8,GyrZ8,AccX9,AccY9,AccZ9,GyrX9,GyrY9,GyrZ9,AccX10,AccY10,AccZ10,GyrX10,GyrY10,GyrZ10,AccX11,AccY11,AccZ11,GyrX11,GyrY11,GyrZ11,AccX12,AccY12,AccZ12,GyrX12,GyrY12,GyrZ12,AccX13,AccY13,AccZ13,GyrX13,GyrY13,GyrZ13,AccX14,AccY14,AccZ14,GyrX14,GyrY14,GyrZ14,AccX15,AccY15,AccZ15,GyrX15,GyrY15,GyrZ15,AccX16,AccY16,AccZ16,GyrX16,GyrY16,GyrZ16,AccX17,AccY17,AccZ17,GyrX17,GyrY17,GyrZ17,AccX18,AccY18,AccZ18,GyrX18,GyrY18,GyrZ18,AccX19,AccY19,AccZ19,GyrX19,GyrY19,GyrZ19,AccX20,AccY20,AccZ20,GyrX20,GyrY20,GyrZ20,AccX21,AccY21,AccZ21,GyrX21,GyrY21,GyrZ21,AccX22,AccY22,AccZ22,GyrX22,GyrY22,GyrZ22,AccX23,AccY23,AccZ23,GyrX23,GyrY23,GyrZ23,AccX24,AccY24,AccZ24,GyrX24,GyrY24,GyrZ24,AccX25,AccY25,AccZ25,GyrX25,GyrY25,GyrZ25,AccX26,AccY26,AccZ26,GyrX26,GyrY26,GyrZ26,AccX27,AccY27,AccZ27,GyrX27,GyrY27,GyrZ27,AccX28,AccY28,AccZ28,GyrX28,GyrY28,GyrZ28,AccX29,AccY29,AccZ29,GyrX29,GyrY29,GyrZ29,AccX30,AccY30,AccZ30,GyrX30,GyrY30,GyrZ30

left,-36,36,-260,38,121,23,-36,32,-258,26,10,-16,-38,36,-257,39,19,-35,-37,31,-259,24,10,-16,-38,34,-259,25,19,-6,-36,33,-259,11,12,-12,-38,30,-258,23,16,-15,-37,31,-258,18,8,-16,-36,31,-261,19,0,-23,-37,34,-257,49,-39,-33,-38,24,-257,44,-48,-20,-40,32,-258,20,-8,-32,-40,24,-260,6,-8,-17,-41,32,-258,27,-17,-2,-42,28,-260,28,-35,-31,-46,22,-257,27,-56,3,-46,27,-258,-5,-54,28,-44,32,-259,29,-75,19,-42,36,-262,-82,-47,50,-27,35,-269,-529,-264,-75,-105,39,-272,-243,19,69,-139,12,-341,1051,429,-371,-58,-9,-316,-603,815,-612,-7,63,-258,-701,327,-587,-8,73,-208,-382,256,-340,-22,76,-226,-384,69,-129,-9,94,-208,-461,-62,-5,-3,116,-225,-184,-116,100,-14,91,-241,-63,-115,136,-14,98,-240,-105,-89,74
left,-17,96,-247,-35,-70,58,-21,99,-252,11,-66,46,-25,100,-251,-8,-12,23,-27,96,-251,21,20,9,-27,95,-249,37,41,2,-26,94,-248,38,62,-6,-26,94,-242,-6,46,-21,-28,91,-245,6,2,-18,-32,72,-254,25,20,-71,-41,15,-285,30,198,-311,-29,31,-297,-135,568,-784,-43,29,-275,-21,739,-897,-33,67,-258,-92,715,-1155,-31,77,-257,15,694,-1247,-29,121,-211,139,595,-1153,-13,172,-204,-473,482,-916,-7,217,-206,-250,354,-502,3,235,-199,-60,112,-15,6,197,-203,46,-258,555,-16,139,-220,-53,-469,788,-17,126,-223,-133,-520,826,-14,110,-236,-37,-704,926,-24,90,-259,-63,-684,913,-30,81,-261,179,-580,818,-29,67,-269,271,-490,663,-27,53,-268,27,-303,446,-26,59,-259,29,-108,203,-24,81,-255,-29,32,12,-19,97,-249,75,72,-57,-15,112,-242,-28,57,-57
left,-19,113,-244,20,48,-56,-15,115,-242,51,48,-48,-18,111,-240,-2,21,-28,-18,110,-242,12,20,-29,-18,111,-245,4,23,-23,-18,104,-247,-1,31,-44,-21,95,-251,-4,76,-85,-21,65,-260,8,168,-237,-26,36,-275,-1,386,-573,-24,61,-267,-145,606,-865,-18,77,-256,-232,653,-1062,-17,96,-236,-85,533,-1037,-38,116,-235,-50,521,-1041,-25,142,-222,-248,600,-1025,-12,191,-205,1,475,-760,-4,212,-202,23,248,-333,-9,204,-203,152,47,81,1,167,-216,41,-171,396,-7,135,-232,49,-293,570,-2,118,-237,28,-317,592,3,98,-236,4,-372,548,0,116,-242,11,-368,515,-9,120,-241,115,-330,538,-15,120,-238,74,-287,525,-11,112,-243,6,-304,523,-19,114,-244,94,-284,481,-10,102,-250,-10,-236,419,-11,101,-248,83,-202,381,-14,102,-242,76,-137,284,-9,100,-246,98,-157,271
left,-14,87,-253,74,-126,198,-15,89,-256,25,-26,93,-12,97,-247,75,20,17,-10,102,-245,38,41,-25,-13,100,-247,49,65,-76,-15,91,-252,10,102,-155,-10,81,-259,19,168,-219,-11,54,-273,38,284,-415,-12,52,-264,51,496,-704,-2,77,-252,-114,525,-880,0,117,-238,-137,415,-842,-6,115,-241,-123,291,-774,-13,136,-230,3,287,-709,-17,125,-234,-4,301,-607,-17,171,-216,-92,334,-548,-6,190,-211,-155,233,-237,5,199,-202,78,-35,158,-8,166,-209,85,-256,447,-10,139,-227,63,-342,593,-10,120,-233,90,-400,658,-16,108,-245,26,-434,649,-14,112,-252,21,-363,600,-12,101,-250,6,-327,578,-16,111,-247,-15,-257,482,-13,95,-252,8,-208,417,-10,93,-251,54,-241,369,-16,91,-246,58,-130,243,-13,91,-248,96,-132,175,-15,102,-251,119,-99,129,-14,100,-254,51,-5,27
left,-12,106,-252,54,34,-8,-11,111,-243,-23,104,-62,-7,113,-240,1,43,-27,-11,100,-250,76,16,-24,-17,68,-259,25,162,-216,-12,78,-257,30,300,-394,-16,90,-256,-3,387,-538,-12,71,-258,-154,474,-719,-6,86,-252,-47,509,-829,-10,113,-244,-195,481,-855,-16,120,-235,15,428,-780,-15,117,-234,-139,434,-807,-18,141,-230,-83,486,-810,-1,189,-214,24,433,-566,8,212,-197,-8,227,-130,9,195,-199,79,-105,312,-2,164,-210,134,-359,602,-5,140,-230,47,-471,726,-4,121,-242,61,-446,786,6,101,-250,108,-552,811,-12,96,-246,13,-397,686,-7,97,-250,55,-376,596,-8,100,-247,87,-307,525,-9,101,-248,72,-347,513,-8,87,-255,38,-321,442,-16,87,-256,-63,-199,287,-14,88,-253,2,-137,210,-14,96,-252,-18,-60,130,-12,97,-251,33,2,42,-7,108,-246,43,-2,22
left,-7,103,-248,23,41,-21,-7,111,-242,50,35,-29,-8,110,-241,11,4,-21,-11,111,-243,44,16,-12,-14,101,-249,32,43,-39,-14,81,-255,-6,132,-154,-18,59,-260,18,263,-367,-21,45,-268,-94,492,-681,-14,64,-260,-122,645,-948,-11,93,-253,-64,683,-1088,-8,127,-238,-153,648,-1056,-2,139,-226,-40,540,-945,-16,147,-215,-175,424,-784,2,200,-202,-38,292,-524,5,213,-196,86,29,-42,1,199,-203,36,-218,372,4,162,-222,61,-455,659,-10,138,-221,152,-425,757,-15,120,-235,97,-521,812,-12,107,-241,37,-555,759,2,97,-253,-59,-643,752,-21,87,-257,-4,-507,597,-17,84,-255,77,-378,451,-21,96,-251,63,-247,312,-23,101,-250,78,-137,208,-22,112,-247,71,-106,159,-21,106,-250,78,-60,109,-22,100,-252,40,33,16,-17,107,-245,19,48,-21,-17,108,-241,-14,60,-46
left,-16,110,-238,17,44,-34,-18,118,-236,40,5,-15,-14,119,-238,20,-1,-15,-16,117,-238,44,8,-10,-17,97,-257,-25,25,-44,-22,85,-254,-75,171,-182,-23,75,-259,-116,270,-342,-15,74,-261,-44,380,-526,-19,82,-255,-116,528,-740,-20,91,-256,-183,632,-871,-24,104,-248,-134,701,-986,-23,117,-237,-67,670,-1040,-20,148,-229,-266,765,-1103,-14,166,-208,0,705,-967,-2,199,-191,-126,538,-618,11,227,-179,23,114,-123,4,212,-199,77,-194,369,-6,187,-205,182,-398,757,-12,160,-210,134,-537,936,-10,122,-230,16,-641,975,-14,107,-238,61,-696,925,1,85,-256,-147,-655,749,-1,104,-262,-10,-641,702,-18,106,-255,146,-504,610,-18,97,-260,131,-390,525,-22,94,-257,119,-149,297,-11,112,-239,50,-103,193,-16,109,-242,53,-48,127,-12,112,-242,104,-34,80,-11,112,-239,84,12,28
left,-11,115,-240,46,15,4,-9,115,-239,41,15,-8,-10,113,-240,30,11,-10,-10,119,-239,3,13,-25,-10,114,-242,-3,9,-13,-11,114,-242,10,9,-11,-16,92,-257,50,59,-70,-19,58,-270,-46,264,-339,-13,59,-267,-9,537,-672,-8,76,-257,-138,624,-879,-6,103,-252,-228,632,-970,-13,112,-236,-180,616,-949,-16,123,-233,-231,633,-990,-24,143,-229,-251,673,-1036,-19,152,-223,-140,713,-1032,0,199,-198,-49,617,-781,19,231,-181,94,323,-235,26,229,-179,256,-201,347,-2,189,-201,115,-394,654,-4,159,-210,146,-541,807,3,140,-218,137,-658,896,1,122,-232,43,-758,926,-3,110,-240,117,-810,875,-13,103,-249,128,-890,882,-29,87,-259,58,-811,808,-41,92,-254,256,-636,612,-41,85,-259,223,-478,458,-47,86,-254,220,-252,256,-40,90,-251,91,-63,92,-33,110,-241,86,-37,44
left,-35,114,-237,65,-19,28,-35,109,-242,-25,-17,18,-35,107,-244,-1,7,9,-33,111,-240,19,9,-1,-34,111,-238,-13,24,-11,-37,111,-238,-6,4,-7,-39,112,-239,21,30,-16,-40,104,-248,25,76,-42,-39,87,-260,33,200,-172,-42,62,-268,-64,392,-374,-53,30,-266,-362,685,-804,-44,49,-265,-147,914,-1163,-41,78,-240,-440,1032,-1438,-36,129,-220,-446,1036,-1491,-35,163,-219,-402,898,-1339,-30,197,-192,-55,807,-1040,6,231,-187,-38,473,-518,6,244,-175,99,34,65,-6,205,-192,149,-305,498,-11,180,-202,130,-564,822,-15,154,-219,183,-651,963,-14,135,-226,248,-711,1032,-13,110,-238,250,-768,1060,-17,104,-241,195,-763,971,-26,94,-248,103,-612,809,-35,86,-260,172,-470,641,-26,88,-258,119,-355,458,-27,93,-254,93,-244,308,-27,97,-250,134,-106,185,-23,102,-248,120,-61,124
left,-23,106,-241,70,-16,53,-23,109,-243,11,-4,12,-24,104,-248,-4,14,-6,-26,105,-247,42,58,-38,-24,107,-246,24,58,-62,-25,102,-253,40,149,-131,-24,74,-262,-28,231,-254,-36,45,-278,-11,516,-624,-24,50,-274,-97,763,-969,-26,67,-262,-214,883,-1233,-19,100,-242,-286,955,-1327,-38,109,-237,-374,1001,-1424,-32,142,-214,-392,1013,-1519,-9,224,-188,-193,903,-1151,20,266,-168,183,480,-470,22,265,-161,181,-138,363,5,201,-184,15,-606,895,-7,159,-208,216,-891,1149,-17,136,-223,326,-895,1233,-8,112,-234,355,-971,1233,-19,105,-240,174,-936,1171,-36,91,-251,222,-843,1099,-40,84,-253,262,-737,942,-39,70,-260,206,-665,786,-52,63,-265,30,-415,526,-40,73,-261,5,-265,385,-41,72,-253,55,-143,227,-38,82,-252,18,-40,82,-33,97,-247,43,17,14,-30,99,-241,-4,35,-25
left,-36,105,-245,42,47,-32,-34,102,-248,0,56,-57,-38,83,-253,-20,144,-126,-37,76,-254,16,270,-277,-41,58,-270,-99,470,-544,-38,51,-280,-166,758,-896,-41,52,-261,-321,923,-1228,-35,75,-250,-452,953,-1423,-28,121,-231,-280,975,-1411,-20,141,-221,-256,913,-1322,-13,188,-197,-106,707,-1088,-7,207,-196,-186,524,-642,2,229,-190,137,231,-153,15,232,-181,144,-158,424,7,187,-202,54,-558,856,0,161,-216,190,-724,1064,-10,132,-229,283,-795,1172,-15,107,-245,43,-818,1125,-16,94,-249,-14,-732,986,-15,91,-252,53,-688,854,-28,95,-250,224,-574,700,-26,86,-257,100,-413,507,-26,96,-251,63,-310,363,-23,104,-244,81,-228,273,-24,92,-250,119,-199,188,-26,94,-254,89,-127,105,-25,101,-252,35,-41,34,-27,103,-247,98,-4,10,-24,109,-244,51,5,-3,-27,108,-243,29,20,-9
left,-25,107,-242,10,23,-28,-26,112,-240,35,23,-18,-24,107,-245,-27,13,-20,-25,110,-244,8,17,-16,-26,105,-245,39,28,-21,-37,83,-259,0,99,-104,-42,50,-274,-16,432,-417,-38,38,-276,-123,732,-856,-21,56,-270,-188,919,-1247,-23,81,-268,-305,1038,-1510,-17,118,-243,-142,1048,-1507,-15,147,-218,-185,904,-1330,-10,173,-199,-21,725,-1095,-3,207,-192,-49,492,-688,12,241,-184,21,158,-65,12,211,-189,84,-240,513,3,184,-200,181,-564,914,-1,145,-212,180,-721,1133,-3,114,-230,193,-829,1203,-6,98,-238,182,-909,1121,-23,83,-254,-73,-803,977,-25,88,-260,24,-733,848,-26,87,-258,38,-571,684,-29,86,-257,125,-472,555,-33,90,-255,164,-359,399,-32,89,-253,39,-221,304,-37,91,-251,25,-129,176,-31,92,-248,-2,-59,66,-31,92,-248,75,-4,5,-26,106,-245,62,25,-30
left,-27,111,-240,25,39,-40,-30,116,-239,4,27,-26,-29,108,-239,11,22,-12,-30,117,-239,17,24,-17,-31,113,-239,-2,33,-21,-32,100,-249,18,64,-41,-46,54,-268,4,277,-277,-49,40,-265,-18,625,-717,-37,41,-272,-207,900,-1173,-39,47,-264,-115,992,-1462,-46,87,-241,-301,1016,-1784,-23,120,-240,-148,988,-1718,-32,159,-226,-145,932,-1502,-24,185,-209,-240,746,-1181,-8,233,-193,-138,505,-650,8,251,-186,61,69,75,3,225,-190,111,-341,762,-5,182,-204,185,-755,1197,-13,147,-209,336,-956,1377,-28,117,-231,315,-1091,1485,-38,81,-249,120,-1054,1423,-53,68,-249,155,-926,1242,-48,80,-256,171,-826,1058,-55,72,-258,95,-666,861,-57,75,-255,160,-546,633,-56,67,-254,60,-345,441,-55,71,-249,89,-186,247,-52,87,-252,108,-41,70,-45,100,-247,81,61,-16,-43,106,-243,34,51,-11
left,-46,95,-243,-11,64,-47,-45,102,-243,20,117,-86,-40,105,-241,-20,94,-78,-35,110,-243,-3,38,-33,-40,108,-238,8,21,-20,-37,96,-248,-23,17,-36,-62,49,-273,52,249,-241,-64,9,-288,-170,695,-820,-55,31,-280,-256,1106,-1314,-44,63,-262,-315,1232,-1635,-23,105,-222,-271,1100,-1623,-26,142,-208,-264,925,-1470,-23,164,-212,-330,797,-1228,-17,186,-199,-299,587,-887,4,223,-194,-176,373,-328,6,217,-191,215,-56,223,12,193,-197,130,-397,639,-6,166,-205,215,-666,958,-10,142,-221,323,-820,1111,-11,114,-236,227,-924,1174,-30,78,-255,129,-945,1147,-36,81,-255,29,-851,911,-42,81,-263,118,-608,688,-41,80,-261,167,-358,467,-35,94,-248,103,-217,289,-30,103,-249,75,-149,208,-37,100,-247,129,-103,159,-34,101,-249,59,-97,117,-39,96,-246,37,8,40,-38,107,-242,33,2,13
left,-38,102,-244,-3,21,-4,-34,102,-240,47,22,-9,-32,108,-238,35,10,-20,-33,113,-238,39,-1,-8,-38,103,-246,4,17,-13,-38,97,-248,45,66,-49,-49,70,-262,-3,248,-245,-52,36,-268,-23,537,-591,-39,41,-268,-81,780,-973,-38,50,-264,-419,934,-1330,-29,97,-248,-347,995,-1509,-37,120,-244,-325,1019,-1532,-24,156,-218,-51,921,-1399,-4,178,-201,44,648,-1008,0,198,-200,13,353,-572,6,200,-202,128,114,-69,10,182,-211,153,-155,371,5,168,-217,134,-378,735,0,153,-223,152,-518,937,7,137,-232,128,-688,1149,-5,116,-235,188,-793,1217,-25,106,-243,179,-879,1236,-30,75,-253,13,-789,1169,-41,73,-257,199,-726,1025,-40,70,-254,235,-630,777,-42,64,-260,-46,-404,540,-40,79,-256,130,-327,378,-43,79,-254,71,-190,213,-40,79,-258,24,-33,43,-36,89,-257,54,63,-38
left,-30,104,-244,90,68,-45,-34,103,-241,3,45,-18,-36,97,-242,39,30,0,-37,100,-242,47,30,-25,-33,102,-246,11,38,-27,-32,90,-254,-20,97,-74,-37,78,-254,-2,129,-134,-47,61,-254,-60,365,-398,-46,45,-263,-120,621,-752,-35,54,-266,-276,799,-1077,-30,70,-257,-238,910,-1286,-28,95,-250,-392,1040,-1409,-26,121,-243,-426,1054,-1399,-12,150,-217,-100,856,-1303,-7,160,-205,-121,739,-1086,-8,171,-212,-16,612,-825,11,198,-208,119,444,-470,26,200,-210,181,211,-8,34,189,-206,129,-101,433,18,166,-215,147,-316,777,20,149,-213,355,-530,1029,21,121,-227,257,-683,1191,2,110,-234,682,-840,1246,-2,70,-247,65,-847,1215,-16,61,-254,54,-863,1122,-29,68,-257,114,-807,972,-35,62,-257,37,-692,834,-45,69,-256,38,-558,622,-42,65,-262,6,-344,390,-40,69,-266,-41,-215,246
left,-43,70,-262,48,-109,116,-41,78,-259,-9,18,-15,-35,87,-253,55,70,-64,-38,90,-249,9,67,-61,-36,95,-245,30,58,-59,-31,95,-247,21,37,-19,-41,82,-253,28,54,-28,-58,35,-268,-46,302,-306,-50,25,-262,-178,626,-754,-43,30,-257,-203,786,-1128,-29,62,-255,-274,821,-1387,-32,97,-250,-193,840,-1432,-24,107,-253,-214,759,-1421,-13,123,-225,-273,671,-1330,-11,150,-223,-261,563,-1082,-10,165,-224,-87,429,-721,4,186,-216,-85,326,-287,7,194,-215,82,100,150,4,177,-216,164,-166,512,8,148,-219,112,-379,801,1,134,-225,206,-523,998,-5,120,-233,277,-621,1118,-13,103,-244,97,-667,1158,-11,78,-257,34,-708,1077,-16,68,-259,53,-641,922,-19,73,-256,50,-535,769,-23,70,-258,144,-412,629,-31,68,-255,99,-320,460,-29,76,-254,91,-189,284,-26,75,-254,52,-121,172
left,-28,73,-261,-16,-42,59,-27,71,-259,57,88,-93,-32,60,-263,13,195,-225,-29,49,-269,-36,428,-506,-25,41,-269,-167,618,-823,-33,42,-262,-345,717,-1125,-29,63,-252,-268,769,-1295,-24,115,-241,-158,849,-1360,-21,134,-232,-173,781,-1275,-6,154,-219,-47,650,-1085,0,174,-216,-62,505,-727,12,184,-215,106,281,-273,18,191,-212,127,-27,242,13,173,-215,128,-283,656,-5,149,-221,187,-477,950,-4,124,-235,106,-617,1095,-10,95,-242,38,-677,1184,-14,82,-257,-44,-690,1042,-12,77,-263,0,-651,960,-13,71,-262,39,-532,788,-14,71,-256,106,-430,669,-18,75,-254,112,-375,523,-25,72,-256,74,-251,377,-24,72,-252,61,-156,205,-15,84,-252,22,-97,93,-22,92,-252,55,-36,52,-20,99,-252,52,-5,19,-18,90,-251,-10,25,-6,-19,95,-247,54,20,-7,-22,98,-246,40,38,-42
left,-23,89,-252,12,75,-83,-26,69,-264,-12,171,-164,-31,48,-263,-52,414,-478,-19,50,-267,-132,570,-784,-11,62,-263,-235,706,-1061,-16,87,-264,-83,793,-1182,-12,89,-254,-43,823,-1243,-9,112,-237,-168,842,-1295,-7,130,-232,-138,768,-1227,5,161,-218,-47,621,-979,9,184,-219,75,458,-533,31,182,-207,64,204,-69,21,191,-199,144,-227,361,18,165,-209,144,-452,751,3,142,-218,24,-650,1001,9,119,-233,138,-880,1128,1,101,-247,126,-908,1155,-23,86,-263,72,-800,1123,-21,75,-260,140,-719,982,-28,74,-256,85,-571,858,-29,67,-262,113,-493,710,-33,64,-258,93,-337,482,-33,64,-263,58,-153,270,-23,76,-256,41,-69,97,-26,84,-255,60,-19,54,-26,87,-252,-9,5,10,-26,89,-251,29,41,-22,-25,95,-247,36,37,-32,-24,100,-246,38,41,-50,-23,95,-248,0,38,-50
left,-28,88,-253,21,59,-57,-32,58,-257,-3,163,-215,-30,42,-263,-39,365,-536,-26,50,-263,-12,531,-812,-27,43,-265,-243,618,-1108,-9,72,-256,-245,642,-1227,-31,109,-257,-246,771,-1233,-23,123,-243,-174,734,-1196,-18,138,-224,-158,675,-1092,-4,153,-222,-57,518,-837,4,189,-211,-31,432,-372,20,205,-195,124,133,210,8,181,-204,193,-274,699,4,148,-220,269,-563,1014,-4,111,-234,28,-660,1183,-7,89,-242,73,-780,1207,-19,84,-254,0,-802,1075,-26,51,-278,-287,-636,982,-28,63,-269,183,-511,727,-27,57,-261,123,-358,488,-28,73,-257,111,-185,279,-24,76,-255,23,-112,147,-23,86,-253,-28,-48,46,-22,86,-254,25,-13,3,-22,89,-254,12,10,-19,-21,97,-246,45,47,-18,-17,101,-243,81,4,-4,-19,95,-250,14,-7,-4,-19,88,-251,4,15,-25,-22,88,-254,-5,40,-51
left,-29,70,-259,30,150,-148,-29,49,-264,-40,330,-377,-19,41,-271,-26,529,-690,-20,25,-268,-256,667,-1072,-22,65,-258,-246,791,-1344,-27,88,-257,-247,855,-1510,-21,114,-235,-85,790,-1436,-29,148,-219,-204,702,-1335,-13,176,-216,-81,566,-1013,3,210,-204,94,342,-417,8,202,-211,156,32,141,3,176,-220,133,-243,602,1,150,-231,116,-406,878,0,127,-228,225,-484,1079,-2,109,-233,305,-597,1177,-12,87,-250,64,-680,1141,-12,85,-255,-40,-701,1026,-20,78,-259,14,-627,932,-23,65,-260,71,-544,768,-22,66,-259,72,-432,574,-28,62,-257,59,-261,368,-26,73,-255,135,-161,233,-22,72,-258,87,-79,115,-17,79,-255,2,-43,36,-26,85,-249,41,-8,2,-21,89,-250,47,-17,2,-23,87,-256,52,4,-5,-24,96,-247,62,16,-15,-23,93,-248,42,21,-30,-22,87,-251,1,19,-21
left,-23,91,-250,30,54,-35,-23,91,-251,15,38,-39,-24,87,-254,-8,52,-49,-27,75,-256,11,99,-100,-29,59,-261,-45,178,-250,-44,11,-270,-39,437,-646,-38,17,-279,-278,744,-1268,-25,45,-263,-181,898,-1550,0,111,-238,-114,817,-1475,-19,135,-238,-290,652,-1300,-9,153,-232,-163,433,-972,-12,169,-228,-149,332,-602,1,193,-218,14,186,-135,1,191,-212,116,-52,356,1,168,-215,123,-323,779,-2,136,-221,53,-519,1030,-2,107,-237,72,-671,1175,-8,88,-245,127,-766,1150,-24,77,-252,113,-708,1010,-31,70,-262,123,-551,876,-28,70,-264,170,-401,704,-31,65,-260,75,-280,493,-26,63,-260,21,-183,299,-27,73,-260,16,-91,161,-23,73,-256,86,2,65,-17,85,-252,18,1,13,-17,88,-250,33,-6,-1,-20,88,-251,3,2,-28,-25,92,-249,19,21,-25,-20,93,-251,-6,2,-16
left,-23,88,-250,-72,15,-18,-21,97,-250,35,40,-19,-21,94,-250,3,36,-33,-23,70,-255,-12,63,-71,-45,38,-271,-6,320,-400,-28,17,-270,-51,571,-839,-31,29,-273,-284,741,-1312,-36,43,-258,-354,856,-1629,-25,107,-245,-219,920,-1689,-27,144,-227,-356,823,-1510,-24,196,-211,-160,601,-1085,-12,220,-201,-1,376,-503,-3,223,-196,186,10,195,0,198,-200,149,-328,768,-7,165,-219,222,-636,1205,-5,126,-232,283,-780,1370,-5,78,-245,291,-887,1310,-26,58,-255,97,-851,1172,-40,71,-265,192,-631,920,-32,65,-263,155,-462,765,-36,58,-261,98,-322,553,-33,58,-257,50,-191,327,-31,66,-256,93,-69,167,-28,74,-254,54,-26,65,-27,79,-251,22,-4,8,-23,91,-248,-1,7,-32,-25,91,-251,-1,18,-30,-24,93,-253,10,-6,-16,-24,91,-252,-4,13,-5,-24,89,-254,18,19,-6
left,-29,88,-247,22,41,-31,-26,87,-248,32,42,-35,-26,78,-255,35,63,-71,-37,38,-269,30,234,-294,-31,26,-273,-134,478,-692,-28,41,-261,-200,631,-959,-28,50,-262,-421,731,-1250,-36,73,-252,-229,885,-1435,-26,101,-246,-179,933,-1559,-29,142,-228,-277,857,-1465,-15,195,-209,-32,679,-1067,2,242,-194,12,398,-339,1,224,-192,231,-64,418,2,204,-195,315,-488,1044,-14,157,-212,299,-780,1475,-31,104,-239,409,-872,1518,-32,62,-264,243,-875,1348,-30,41,-271,26,-680,1150,-24,41,-260,21,-544,944,-33,43,-258,142,-447,681,-33,53,-261,49,-273,451,-31,59,-261,108,-146,271,-26,60,-261,-28,-28,109,-23,67,-257,53,4,43,-26,77,-253,15,22,-15,-22,83,-251,12,34,-33,-21,88,-249,-13,39,-38,-22,88,-251,-4,10,-15,-21,90,-251,-16,1,-20,-18,82,-253,3,18,-11
left,-25,81,-250,48,13,-20,-24,88,-253,49,24,-27,-29,69,-258,21,121,-105,-34,39,-267,-32,248,-291,-33,6,-266,-122,494,-734,-19,24,-268,-114,636,-1100,-21,40,-268,-259,714,-1392,-23,72,-259,-267,783,-1572,-25,99,-249,-255,813,-1546,-24,120,-235,-325,711,-1499,-22,167,-218,-102,596,-1187,-12,215,-205,-103,513,-626,9,255,-190,58,116,170,6,198,-201,120,-313,928,-11,162,-213,417,-673,1296,-19,126,-224,333,-783,1464,-18,67,-253,287,-883,1488,-21,62,-258,124,-877,1397,-27,27,-275,19,-729,1179,-34,29,-280,84,-555,812,-29,41,-274,146,-330,498,-28,53,-262,87,-99,236,-27,62,-257,-48,20,94,-23,78,-253,104,16,47,-24,77,-257,-20,21,-11,-19,84,-251,4,38,-26,-22,85,-249,7,7,-15,-22,86,-252,10,6,0,-17,83,-254,-7,16,-14,-17,84,-256,36,3,5
left,-23,78,-254,-28,35,-26,-30,60,-259,-46,134,-110,-38,23,-270,-126,292,-398,-29,21,-265,-224,524,-839,-23,57,-264,-127,710,-1092,-22,52,-263,-328,804,-1463,-19,102,-246,-122,838,-1534,-27,126,-245,-266,833,-1484,-15,151,-231,-21,747,-1254,-6,173,-218,10,565,-908,2,196,-209,-20,403,-382,12,208,-198,107,72,224,12,174,-211,126,-259,761,14,153,-223,237,-538,1166,7,118,-234,62,-676,1401,20,128,-227,-249,-885,1335,-24,63,-262,-189,-838,1269,-23,70,-258,102,-760,1054,-18,69,-256,196,-599,845,-24,61,-264,88,-503,652,-25,61,-264,67,-265,385,-25,70,-262,76,-109,184,-13,77,-260,1,12,57,-8,80,-255,38,10,24,-13,93,-251,76,-20,2,-16,88,-250,-12,33,-38,-16,98,-249,49,35,-31,-12,98,-247,13,7,-21,-16,92,-248,-26,21,-5,-16,92,-249,-3,-6,2
left,-13,87,-251,7,15,-18,-16,92,-252,30,-5,3,-16,86,-256,-8,4,-30,-25,80,-257,48,127,-113,-26,63,-267,68,236,-255,-19,53,-264,-27,470,-560,-28,24,-268,-82,557,-820,-22,16,-273,-285,773,-1329,-23,67,-270,-234,996,-1643,-15,98,-248,-208,985,-1668,-10,125,-218,-187,754,-1583,-14,178,-207,-195,589,-1259,-5,235,-191,31,375,-571,5,235,-199,133,-6,182,8,217,-203,145,-384,850,2,169,-207,98,-677,1294,1,121,-226,82,-895,1544,-20,99,-223,188,-1027,1601,-40,61,-260,137,-1053,1410,-42,59,-274,102,-792,1091,-39,41,-275,206,-502,763,-29,44,-264,82,-296,414,-21,66,-257,157,-101,202,-18,74,-260,51,-33,73,-22,88,-257,7,-9,21,-24,80,-258,-30,70,-39,-19,94,-249,46,46,-38,-17,95,-248,20,20,-20,-21,92,-247,7,29,-14,-18,94,-248,36,37,-27
left,-14,96,-250,35,49,-33,-14,93,-248,-2,19,-6,-16,87,-246,-3,2,-10,-19,92,-250,61,6,-15,-30,61,-263,49,114,-147,-34,19,-273,-11,367,-525,-27,19,-267,-103,608,-940,-20,41,-266,-303,786,-1312,-19,79,-265,-403,877,-1502,-28,112,-256,-229,893,-1560,-17,125,-221,-103,810,-1462,-13,160,-202,-84,682,-1176,-3,188,-209,42,451,-752,3,206,-207,52,216,-139,10,206,-208,201,-135,441,12,179,-213,234,-408,969,-1,145,-217,209,-651,1291,-9,121,-227,81,-802,1436,-24,95,-242,410,-952,1495,-29,60,-264,181,-884,1296,-33,46,-267,154,-684,1057,-30,48,-267,94,-505,794,-34,47,-269,-20,-328,477,-31,52,-268,24,-152,266,-25,67,-259,64,-75,111,-26,73,-258,-36,3,5,-21,83,-257,19,12,-10,-22,84,-254,-21,51,-50,-21,88,-251,-7,44,-29,-24,87,-247,20,29,-18
left,-24,89,-247,24,11,-8,-22,87,-248,-20,20,-24,-24,86,-250,39,2,4,-25,86,-253,-3,23,-19,-29,65,-264,29,118,-97,-27,26,-273,-64,287,-395,-32,25,-276,-232,566,-857,-28,29,-264,-179,713,-1190,-20,52,-263,-354,825,-1478,-28,95,-248,-129,901,-1553,-28,106,-244,-37,854,-1590,-23,151,-230,-156,714,-1415,-14,183,-215,-101,520,-1008,-2,227,-198,58,336,-342,13,234,-194,12,-62,519,6,190,-211,164,-522,1170,-13,154,-216,223,-740,1527,-13,118,-233,391,-997,1730,-23,56,-249,174,-966,1580,-33,25,-266,-3,-778,1231,-30,41,-263,77,-644,909,-27,58,-258,46,-495,630,-31,48,-264,-4,-273,357,-30,56,-266,81,-112,122,-26,81,-256,60,-10,-5,-25,83,-255,-28,35,-33,-26,91,-251,49,25,-19,-21,88,-249,-9,39,-44,-25,91,-249,52,45,-18,-21,89,-251,-5,36,-32
left,-25,90,-251,-7,57,-35,-21,89,-251,19,53,-59,-22,74,-257,-2,112,-110,-26,63,-258,19,204,-253,-28,37,-261,-69,353,-519,-26,42,-262,-89,533,-834,-19,44,-268,-289,686,-1197,-23,46,-276,-361,798,-1464,-24,70,-256,-230,903,-1630,-21,118,-232,-117,889,-1594,-12,154,-215,-162,741,-1428,-8,195,-207,-70,512,-935,0,226,-202,-44,295,-201,10,215,-204,173,-104,572,0,178,-212,246,-478,1117,1,144,-227,221,-663,1454,-3,105,-239,374,-810,1633,-10,68,-252,209,-895,1494,-20,37,-264,-107,-857,1276,-31,35,-272,-3,-553,879,-18,60,-259,191,-451,624,-23,53,-265,54,-305,417,-27,55,-265,37,-175,235,-25,66,-261,55,-27,85,-15,80,-251,7,-6,18,-14,78,-255,-7,-19,16,-22,82,-254,52,17,-7,-18,87,-251,38,18,-34,-18,88,-247,46,30,-9,-20,85,-247,15,0,-27
left,-19,85,-253,26,24,-29,-24,82,-255,35,58,-61,-24,67,-262,-33,124,-143,-26,55,-266,-22,267,-307,-24,27,-278,-61,435,-575,-20,15,-280,-270,632,-994,-38,21,-272,-443,846,-1508,-46,53,-258,-283,1055,-1920,-36,104,-237,-114,1146,-2018,-24,171,-209,-154,1002,-1782,-7,232,-198,45,595,-1045,10,247,-202,53,233,-148,9,219,-209,165,-152,655,7,178,-216,142,-441,1211,17,140,-226,174,-678,1562,1,99,-235,206,-795,1692,-5,56,-253,143,-959,1581,-11,50,-256,11,-951,1298,-26,34,-263,5,-746,1058,-29,41,-265,119,-547,734,-25,54,-263,3,-350,440,-25,56,-263,-1,-170,274,-22,68,-262,113,-126,134,-22,77,-253,-35,-20,18,-20,79,-257,20,34,-22,-21,87,-249,47,52,-24,-21,88,-251,28,25,-12,-17,91,-247,2,31,-37,-20,88,-249,35,9,-14,-20,87,-251,10,2,-8
left,-20,78,-256,-5,14,-18,-22,79,-253,4,42,-34,-17,86,-254,19,40,-45,-15,83,-253,30,42,-33,-18,67,-261,-4,84,-78,-26,49,-263,38,208,-232,-35,12,-269,-163,418,-619,-31,23,-275,-258,679,-1095,-29,27,-264,-300,798,-1493,-35,68,-253,-555,882,-1815,-30,117,-239,-310,960,-1799,-36,152,-233,-416,885,-1720,-17,220,-199,-76,680,-1145,0,259,-190,262,343,-210,2,241,-189,192,-127,679,2,191,-205,212,-553,1309,-7,147,-222,323,-786,1639,-10,109,-237,342,-919,1726,-13,68,-246,100,-954,1702,-28,24,-268,-17,-884,1418,-42,23,-276,105,-666,1026,-35,40,-267,85,-500,651,-33,47,-262,136,-273,329,-26,62,-261,69,-67,111,-21,70,-256,92,1,2,-20,82,-256,14,-5,-33,-24,85,-254,0,30,-30,-21,79,-252,29,41,-26,-24,87,-246,24,40,-37,-20,90,-249,47,28,-27
left,-22,86,-251,33,33,-29,-19,86,-253,-15,34,-31,-18,81,-252,14,27,-14,-21,72,-256,17,38,-56,-27,66,-260,-2,160,-159,-29,40,-271,-41,323,-379,-27,28,-278,-171,512,-744,-30,8,-272,-216,765,-1194,-18,42,-263,-292,964,-1560,-24,73,-247,-328,1076,-1866,-25,118,-234,-286,1025,-1809,-7,160,-212,-93,797,-1518,-2,199,-202,-55,537,-1014,15,247,-191,89,246,-191,11,217,-198,121,-158,583,10,179,-208,139,-513,1104,2,133,-223,79,-672,1418,11,115,-235,310,-881,1572,0,80,-244,140,-959,1488,-27,62,-255,-85,-848,1345,-24,68,-258,113,-828,1149,-31,52,-260,213,-726,995,-39,52,-260,46,-563,682,-34,53,-261,-35,-319,426,-37,54,-262,74,-148,195,-31,75,-257,147,-43,45,-32,81,-258,-72,49,-41,-28,86,-252,-15,72,-59,-26,96,-247,9,63,-61,-24,92,-244,-20,46,-49
left,-23,91,-250,23,25,-35,-30,84,-252,19,63,-61,-36,64,-261,-1,180,-209,-38,54,-262,-50,378,-477,-31,51,-260,-113,570,-785,-25,55,-267,-248,693,-1073,-25,68,-272,-294,805,-1283,-27,84,-250,-169,905,-1474,-23,95,-238,-161,931,-1568,-3,127,-228,-52,804,-1473,-2,157,-222,-120,608,-1194,7,201,-217,-66,405,-679,24,217,-204,51,113,69,19,200,-209,142,-299,774,11,161,-218,76,-601,1211,2,135,-227,225,-869,1468,-14,83,-242,220,-883,1541,-29,59,-255,253,-922,1389,-32,68,-257,170,-871,1144,-37,53,-260,40,-656,1001,-48,39,-265,97,-501,680,-41,59,-260,67,-322,416,-36,69,-259,92,-187,215,-37,66,-262,-1,-25,66,-30,87,-251,-31,13,-12,-27,92,-249,15,10,-28,-30,90,-250,13,19,-35,-31,90,-250,25,41,-24,-31,89,-249,12,55,-49,-31,90,-249,17,42,-58
left,-30,86,-247,0,75,-67,-28,86,-251,-4,65,-67,-33,71,-258,1,125,-148,-34,55,-266,-9,290,-374,-33,39,-265,-11,434,-609,-44,21,-271,-118,713,-1068,-46,35,-282,-441,962,-1507,-35,59,-256,-260,1067,-1804,-32,102,-224,-560,1070,-1839,-15,179,-193,-406,939,-1517,-8,218,-197,-401,684,-859,16,255,-183,184,138,-82,13,231,-195,171,-311,654,8,188,-212,298,-592,1207,-12,142,-221,125,-742,1455,-18,109,-237,348,-916,1458,-14,90,-247,-55,-923,1349,-29,60,-261,143,-807,1129,-21,73,-257,198,-770,935,-32,57,-265,32,-598,750,-38,50,-271,195,-386,435,-33,70,-261,71,-146,191,-26,69,-260,113,-19,69,-23,87,-252,68,18,-10,-25,99,-248,-39,18,-23,-27,94,-249,19,23,-7,-24,87,-251,-10,34,-23,-24,94,-248,42,40,-23,-23,86,-253,-33,34,-50,-19,89,-253,0,51,-40
left,-22,94,-250,39,28,-28,-22,96,-249,-7,38,-29,-26,84,-256,-20,75,-60,-25,75,-256,55,152,-149,-30,61,-261,81,284,-315,-35,32,-275,-126,528,-659,-30,24,-275,-187,791,-1084,-32,33,-267,-167,1010,-1526,-30,54,-265,-350,1151,-1932,-25,100,-233,-362,1113,-2060,-13,166,-198,-272,960,-1811,7,239,-177,-10,541,-1084,9,256,-185,163,91,-73,8,238,-204,130,-294,715,7,183,-227,190,-586,1249,7,138,-223,91,-741,1540,-9,100,-225,429,-913,1620,-11,81,-243,205,-979,1474,-22,77,-253,7,-953,1324,-29,65,-256,24,-828,1169,-41,54,-260,164,-720,915,-43,50,-262,35,-509,593,-42,52,-264,-62,-198,279,-30,68,-263,59,-86,66,-27,79,-263,28,15,-47,-29,90,-253,-34,85,-113,-24,104,-247,3,83,-105,-23,102,-243,-1,51,-44,-25,100,-244,5,-8,1,-27,95,-247,25,4,5
left,-27,91,-252,2,20,-16,-25,91,-248,26,61,-56,-29,83,-252,59,91,-72,-34,75,-257,34,195,-210,-38,55,-261,34,387,-468,-34,37,-270,-91,617,-832,-29,40,-265,-182,799,-1192,-25,52,-266,-263,869,-1515,-35,83,-247,-209,987,-1695,-15,125,-223,-22,931,-1580,-1,154,-218,-5,686,-1265,2,178,-210,-49,459,-813,8,199,-208,-88,214,-231,24,211,-203,-41,-137,463,20,181,-217,76,-527,1045,5,148,-220,6,-738,1481,-11,109,-229,301,-939,1600,-23,83,-249,291,-1055,1436,-42,58,-260,10,-878,1105,-41,43,-278,-107,-547,735,-30,60,-268,99,-283,423,-19,62,-253,127,-116,198,-20,75,-257,-13,-36,41,-13,96,-253,10,42,-21,-14,102,-244,11,37,-26,-13,108,-245,25,19,-12,-16,98,-247,-6,4,-15,-17,96,-250,27,26,-22,-16,98,-246,34,14,-14,-18,100,-248,0,13,-7
left,-16,100,-249,37,31,-16,-14,92,-248,4,35,-33,-11,94,-250,11,41,-40,-22,82,-256,25,107,-99,-25,66,-260,-53,231,-306,-22,66,-265,80,436,-520,-19,45,-270,-97,592,-831,-21,41,-272,-280,813,-1216,-24,55,-266,-223,994,-1593,-23,75,-257,-189,1089,-1831,-17,128,-227,-241,1044,-1887,-18,213,-194,-202,936,-1439,-2,276,-169,-6,588,-448,13,280,-165,417,-140,666,20,228,-183,190,-622,1514,-9,155,-219,263,-811,1967,7,92,-219,-151,-938,1970,4,78,-213,-140,-1021,1689,-2,49,-224,8,-984,1417,-8,51,-243,368,-774,1093,-6,42,-245,432,-889,703,-27,44,-243,346,-822,504,-58,24,-286,208,-626,231,-68,41,-269,338,-495,24,-73,36,-297,466,-243,-26,-57,65,-291,283,-44,-137,-55,30,-251,279,-44,-176,-110,59,-288,54,0,-141,-72,-2,-256,161,144,-98,-53,18,-271,-10,144,-103
left,-42,59,-250,11,121,-139,-43,16,-261,21,132,-56,-39,33,-260,50,86,-171,-38,26,-262,19,83,-149,-43,31,-258,26,84,-124,-33,37,-259,127,61,-86,-42,26,-261,82,28,-58,-41,28,-259,84,42,-28,-36,25,-261,101,37,-22,-36,23,-261,52,51,-21,-37,18,-258,-1,15,-2,-33,25,-259,10,-6,-23,-40,22,-261,-42,34,-38,-34,26,-260,11,14,-32,-37,22,-260,-13,15,-10,-31,25,-262,44,-6,3,-36,24,-261,-16,-12,-34,-34,17,-259,17,6,-21,-36,21,-261,52,4,21,-35,34,-257,132,-11,35,-37,15,-260,44,4,16,-36,22,-258,69,-7,3,-36,20,-260,2,-11,-16