Lable,AccX1,AccY1,AccZ1,GyrX1,GyrY1,GyrZ1,AccX2,AccY2,AccZ2,GyrX2,GyrY2,GyrZ2,AccX3,AccY3,AccZ3,GyrX3,GyrY3,GyrZ3,AccX4,AccY4,AccZ4,GyrX4,GyrY4,GyrZ4,AccX5,AccY5,AccZ5,GyrX5,GyrY5,GyrZ5,AccX6,AccY6,AccZ6,GyrX6,GyrY6,GyrZ6,AccX7,AccY7,AccZ7,GyrX7,GyrY7,GyrZ7,AccX8,AccY8,AccZ8,GyrX8,GyrY8,GyrZ8,AccX9,AccY9,AccZ9,GyrX9,GyrY9,GyrZ9,AccX10,AccY10,AccZ10,GyrX10,GyrY10,GyrZ10,AccX11,AccY11,AccZ11,GyrX11,GyrY11,GyrZ11,AccX12,AccY12,AccZ12,GyrX12,GyrY12,GyrZ12,AccX13,AccY13,AccZ13,GyrX13,GyrY13,GyrZ13,AccX14,AccY14,AccZ14,GyrX14,GyrY14,GyrZ14,AccX15,AccY15,AccZ15,GyrX15,GyrY15,GyrZ15,AccX16,AccY16,AccZ16,GyrX16,GyrY16,GyrZ16,AccX17,AccY17,AccZ17,GyrX17,GyrY17,GyrZ17,AccX18,AccY18,AccZ18,GyrX18,GyrY18,GyrZ18,AccX19,AccY19,AccZ19,GyrX19,GyrY19,GyrZ19,AccX20,AccY20,AccZ20,GyrX20,GyrY20,GyrZ20,AccX21,AccY21,AccZ21,GyrX21,GyrY21,GyrZ21,AccX22,AccY22,AccZ22,GyrX22,GyrY22,GyrZ22,AccX23,AccY23,AccZ23,GyrX23,GyrY23,GyrZ23,AccX24,AccY24,AccZ24,GyrX24,GyrY24,GyrZ24,AccX25,AccY25,AccZ25,GyrX25,GyrY25,GyrZ25,AccX26,AccY26,AccZ26,GyrX26,GyrY26,GyrZ26,AccX27,AccY27,AccZ27,GyrX27,GyrY27,GyrZ27,AccX28,AccY28,AccZ28,GyrX28,GyrY28,GyrZ28,AccX29,AccY29,AccZ29,GyrX29,GyrY29,GyrZ29,AccX30,AccY30,AccZ30,GyrX30,GyrY30,GyrZ30
right,-25,104,-245,11,8,-18,-26,103,-247,17,21,-18,-25,103,-247,5,19,-19,-25,103,-246,22,31,-27,-24,104,-245,23,20,-16,-23,102,-246,12,13,-13,-24,104,-245,32,10,-6,-21,108,-241,76,2,5,-21,144,-235,250,-46,126,-24,165,-219,220,-66,318,-34,151,-230,268,-304,672,-42,138,-233,425,-320,866,-43,89,-241,249,-311,909,-44,69,-246,166,-305,880,-41,63,-247,141,-325,805,-38,45,-260,-6,-329,690,-43,15,-272,13,-277,467,-49,-3,-285,-123,-18,11,-46,4,-284,-93,353,-494,-43,29,-272,-9,548,-818,-33,59,-259,-56,634,-987,-25,79,-249,-67,593,-1011,-19,101,-241,-74,456,-891,-19,105,-234,48,324,-727,-23,99,-240,12,222,-616,-20,111,-239,35,126,-484,-22,113,-242,-70,130,-400,-13,122,-243,-102,82,-232,-14,111,-246,-76,39,-106,-12,110,-246,43,25,-34
right,-11,97,-242,0,0,7,-9,88,-249,24,-40,44,-12,81,-252,2,-32,24,-12,80,-254,1,10,-2,-10,83,-252,5,-3,-15,-11,87,-253,17,-1,-10,-10,97,-249,-21,8,14,-12,126,-243,179,-5,145,-20,151,-231,65,25,276,-10,166,-216,51,-210,668,-27,129,-237,206,-367,966,-35,91,-247,311,-414,1008,-32,63,-259,37,-367,991,-38,47,-260,75,-340,884,-32,26,-263,70,-335,739,-36,8,-276,50,-231,459,-40,-16,-285,-85,44,-1,-28,3,-284,-26,314,-462,-21,23,-273,30,415,-745,-17,42,-262,-10,442,-938,-16,71,-254,-74,430,-944,-12,81,-251,-19,355,-879,-2,104,-235,24,206,-683,-12,91,-247,6,58,-508,-14,104,-248,-152,118,-444,-14,107,-245,-134,116,-363,-5,119,-244,-46,51,-219,-9,108,-247,-140,14,-113,-12,101,-249,47,43,-79,-8,94,-246,-58,38,-52
right,-8,86,-251,-1,-9,-9,-10,82,-254,-16,-4,-9,-8,83,-254,38,10,-20,-7,87,-254,-8,1,-16,-11,90,-249,34,14,2,-10,92,-253,12,11,17,-8,99,-249,84,1,69,-10,125,-246,71,-3,172,-9,143,-232,-204,-27,467,-16,153,-226,184,-268,720,-23,127,-241,207,-401,992,-41,97,-235,386,-404,1126,-30,70,-243,203,-434,1100,-34,42,-263,298,-474,1088,-40,-10,-282,83,-410,933,-44,-47,-301,147,-142,430,-46,-57,-288,-137,282,-287,-23,-12,-265,-100,469,-733,-33,12,-265,-177,528,-1044,-27,31,-262,-265,552,-1230,-9,97,-243,-170,456,-1137,-4,121,-227,-149,352,-928,2,130,-232,182,162,-607,-4,117,-239,-107,105,-452,-1,129,-241,33,25,-255,-2,127,-244,63,-28,-80,-7,101,-251,-17,-34,-4,-5,81,-256,-24,6,-33,1,78,-256,-4,18,-49,0,85,-254,8,10,-39
right,-3,86,-253,-7,22,-35,-4,83,-255,22,10,-16,-1,83,-250,46,4,7,-3,83,-254,-2,-5,-7,-2,96,-249,38,-5,37,-8,106,-250,49,-33,105,-13,133,-241,-3,32,221,-1,152,-233,152,-187,578,-15,142,-236,206,-282,861,-20,104,-243,295,-385,1073,-22,68,-259,-38,-525,1183,-41,26,-269,65,-515,1083,-40,-5,-276,55,-302,763,-33,-12,-276,4,-62,341,-25,1,-268,-37,102,-63,-24,7,-268,-26,302,-448,-23,8,-278,-285,460,-838,-17,42,-271,-127,597,-1063,-18,64,-261,-183,603,-1194,-1,114,-243,-97,419,-1049,0,131,-229,-46,155,-744,-9,123,-236,-80,82,-499,-14,129,-238,-144,117,-414,-7,136,-238,101,87,-254,1,125,-242,-51,72,-147,-2,109,-248,14,74,-97,1,101,-248,46,71,-67,3,98,-245,18,49,-58,1,99,-246,21,18,-35,-1,95,-248,20,8,-30
right,0,96,-251,6,13,-21,2,99,-247,42,-4,-3,0,116,-240,40,-25,36,0,132,-235,110,-126,209,-12,152,-231,21,-127,354,-8,160,-232,144,-319,714,-23,147,-238,270,-378,981,-25,112,-245,467,-472,1206,-28,70,-252,379,-466,1223,-31,21,-259,214,-473,1098,-44,-10,-263,148,-414,840,-41,-22,-276,17,-256,403,-40,-22,-284,94,117,-116,-28,2,-275,8,378,-539,-29,6,-272,-224,521,-841,-15,39,-257,-124,587,-1033,-5,80,-246,-184,524,-1045,-7,65,-255,-224,385,-987,2,105,-249,-87,279,-865,-7,113,-248,-197,162,-699,-4,118,-248,-75,126,-536,2,134,-244,-51,71,-333,-1,117,-248,27,8,-147,-4,104,-248,41,4,-61,-1,90,-250,79,22,-30,0,86,-250,25,7,-29,1,88,-251,49,9,-40,1,85,-251,46,18,-29,0,85,-254,10,1,-18,-1,84,-255,-1,29,-16
right,2,84,-255,-1,15,-4,1,93,-252,17,31,14,1,110,-241,75,-8,97,-1,133,-237,96,-103,303,-6,131,-238,113,-192,528,-7,127,-241,159,-272,770,-17,112,-250,224,-354,984,-23,101,-255,282,-309,1082,-15,69,-254,234,-396,1192,-31,18,-261,324,-398,1108,-37,-15,-266,181,-333,801,-45,-54,-280,161,-97,285,-42,-60,-272,-21,269,-389,-24,-18,-267,-198,466,-840,-26,12,-262,-379,582,-1182,-7,46,-270,-349,600,-1320,-2,91,-263,-309,478,-1254,5,116,-257,-39,290,-1001,4,141,-245,-136,153,-673,1,140,-234,114,28,-328,-5,114,-238,-121,-23,-195,-5,105,-247,14,-12,-126,0,104,-247,-30,63,-129,3,95,-256,-29,23,-75,4,94,-255,39,13,-24,2,88,-255,9,22,-12,3,86,-251,21,19,6,2,79,-251,7,12,-19,5,84,-252,-18,1,-17,2,85,-255,47,5,-1
right,3,83,-254,-11,10,-26,3,89,-253,22,14,-1,1,96,-247,52,-22,43,0,107,-250,74,-35,126,-4,117,-248,101,-23,224,-5,145,-237,65,-29,427,1,145,-238,236,-275,841,-14,124,-246,294,-363,1117,-19,91,-253,345,-366,1281,-22,48,-260,472,-396,1337,-23,-14,-266,368,-417,1153,-29,-56,-278,-79,-273,784,-48,-94,-295,104,63,-5,-17,-61,-286,-169,468,-763,-16,-43,-281,-163,570,-1201,-9,17,-259,-200,606,-1412,-7,45,-241,-158,487,-1354,6,100,-228,-39,400,-1170,19,141,-224,-90,174,-823,9,149,-233,-116,-52,-438,0,131,-248,14,-93,-169,2,106,-258,-33,-55,-48,6,88,-259,-41,-32,-16,4,78,-257,9,0,15,6,74,-255,3,-7,14,5,70,-255,19,-5,19,4,68,-256,46,11,-11,7,74,-256,10,16,-27,6,73,-258,38,3,-18,6,72,-259,-16,12,-36
right,8,77,-255,29,29,-11,8,81,-255,0,18,-7,7,93,-253,44,-13,71,2,109,-249,65,-35,166,8,127,-248,24,-98,395,-6,128,-247,80,-117,637,-1,129,-243,152,-188,911,-6,101,-248,232,-354,1173,-15,67,-253,386,-418,1286,-19,13,-259,400,-486,1216,-23,-34,-266,304,-454,938,-41,-76,-294,220,-187,330,-36,-78,-295,-78,338,-444,-10,-27,-275,-95,541,-863,-6,-5,-267,-294,540,-1102,-1,27,-254,-249,483,-1193,14,93,-247,-265,368,-1069,18,82,-257,-378,222,-881,12,105,-258,-275,20,-668,5,114,-247,-144,-41,-465,2,114,-242,-34,-27,-303,2,110,-249,-19,-24,-172,3,103,-254,-35,8,-109,4,94,-252,3,19,-61,8,88,-253,-23,27,-50,9,85,-252,10,0,-37,6,85,-253,3,11,-26,6,82,-252,1,6,-26,4,85,-252,-15,-4,-27,4,84,-255,46,20,-31
right,6,85,-255,19,27,-32,9,83,-256,38,21,-17,8,89,-255,46,24,-7,5,115,-249,59,38,68,5,120,-246,120,-42,243,1,135,-237,125,-35,395,5,133,-235,145,-174,686,-1,121,-242,251,-326,991,-9,89,-253,392,-424,1194,-12,46,-259,330,-449,1192,-15,15,-263,290,-396,1072,-18,-8,-265,171,-345,801,-29,-44,-274,106,-224,447,-37,-60,-280,-66,121,-193,-19,-30,-278,-129,406,-729,-22,-3,-272,-164,491,-1065,-7,22,-273,-440,505,-1231,-2,62,-248,-253,460,-1178,11,98,-237,-169,325,-991,7,121,-233,-261,149,-753,2,124,-240,-155,118,-565,0,123,-248,-107,89,-379,3,114,-250,-17,50,-253,2,112,-254,-58,58,-184,5,98,-249,7,46,-68,4,89,-248,-9,6,-27,4,82,-254,6,13,-25,9,83,-253,58,-1,6,6,85,-255,68,-2,-8,8,86,-253,18,19,-23
right,6,85,-254,32,19,-22,6,82,-254,0,22,-30,5,86,-254,24,13,-5,5,92,-250,86,11,30,5,102,-250,101,-28,98,5,123,-250,95,-5,209,9,145,-235,154,-56,480,2,137,-232,245,-295,873,-13,121,-241,226,-343,1069,-16,78,-254,224,-420,1242,-17,38,-261,299,-447,1214,-15,1,-267,199,-414,1036,-26,-40,-276,110,-308,646,-43,-73,-287,73,31,66,-22,-45,-277,33,338,-485,-10,-6,-274,-162,450,-861,-13,-11,-272,-255,453,-1102,-5,43,-254,-128,457,-1160,6,79,-249,-356,471,-1150,13,111,-245,-42,357,-947,-2,113,-245,-259,244,-798,6,120,-246,34,139,-567,8,129,-246,-33,78,-387,7,117,-248,48,25,-174,9,101,-249,15,17,-81,13,90,-251,39,2,-32,11,83,-254,7,1,-29,13,82,-254,-10,-7,-25,14,79,-258,6,-7,10,10,74,-255,10,18,-20
right,13,81,-255,-15,6,-22,12,78,-257,43,29,-27,12,79,-255,-8,30,-49,11,85,-255,-4,15,-31,10,87,-254,32,20,-4,9,111,-247,3,17,43,15,147,-236,161,-87,334,0,162,-218,91,-205,631,-1,156,-222,99,-471,1053,-11,114,-244,181,-701,1379,-28,61,-268,179,-729,1405,-41,15,-275,245,-594,1214,-38,1,-273,123,-471,908,-46,-32,-275,260,-317,508,-55,-60,-283,35,134,-118,-38,-28,-274,26,416,-650,-31,-14,-262,-14,532,-981,-24,27,-257,-233,551,-1172,-21,34,-262,-550,567,-1297,-3,95,-253,-256,455,-1149,-1,100,-253,-214,296,-958,3,138,-235,31,77,-614,-13,125,-243,-15,25,-353,-10,114,-248,-7,-12,-171,-8,98,-256,-61,12,-98,2,95,-256,62,40,-12,-1,77,-253,-11,23,-15,4,80,-252,17,19,-11,4,71,-254,27,-8,2,0,74,-256,-4,13,-26
right,0,74,-258,19,33,-25,2,74,-255,-11,30,-40,1,74,-256,4,29,-28,0,74,-255,-3,22,-30,1,85,-254,22,4,-4,1,97,-251,65,-13,42,-5,122,-246,100,-11,180,-3,155,-233,202,-49,513,-12,143,-243,87,-267,909,-24,109,-253,216,-354,1173,-27,67,-257,248,-379,1287,-21,20,-261,339,-398,1200,-22,-23,-270,92,-316,860,-24,-34,-274,110,-153,484,-23,-40,-273,40,58,-5,-10,-24,-277,-22,236,-445,-10,-6,-276,-146,332,-759,-11,16,-270,-192,374,-981,-11,36,-267,-103,380,-1039,-1,65,-251,-171,372,-1036,6,99,-247,-16,286,-846,0,109,-242,-108,196,-689,1,117,-242,-75,108,-498,3,118,-246,53,51,-299,5,97,-254,43,-11,-135,1,84,-255,-11,17,-81,5,70,-258,7,2,-33,7,71,-255,21,17,-30,7,70,-256,37,20,-19,4,69,-257,10,26,-30
right,7,68,-259,18,36,-24,9,69,-256,-1,10,-10,7,68,-258,20,20,-10,8,66,-259,15,5,-5,4,71,-257,32,27,-18,6,87,-252,19,41,14,3,126,-245,33,-10,207,0,136,-236,76,-158,534,1,129,-243,84,-310,883,-14,116,-251,35,-361,1074,-21,74,-260,196,-412,1208,-13,40,-270,-8,-384,1107,-17,21,-271,205,-324,955,-11,-19,-274,209,-217,663,-28,-45,-280,125,-4,120,-15,-27,-274,61,258,-453,-5,-22,-266,19,353,-825,2,26,-255,79,332,-1043,-2,49,-256,-223,376,-1077,-2,65,-262,-301,308,-1084,4,82,-266,-135,131,-913,3,112,-252,-198,27,-677,-4,109,-255,-25,61,-425,1,117,-242,92,46,-231,-3,105,-243,-93,1,-111,-6,88,-254,-62,7,-65,-1,82,-255,-14,17,-42,3,78,-256,-47,18,-50,4,75,-258,-21,14,-23,2,75,-257,28,23,-21
right,1,76,-254,36,16,-7,4,75,-257,0,-8,-10,-2,79,-257,40,22,-1,2,84,-254,48,12,44,6,106,-254,76,-16,172,1,115,-251,86,-30,345,1,137,-232,-168,-56,578,-9,131,-233,161,-334,937,-3,98,-243,209,-539,1173,-14,67,-260,139,-703,1273,-38,35,-268,260,-564,1139,-41,12,-276,125,-374,838,-42,-10,-281,72,-102,433,-41,-17,-269,74,147,16,-36,-15,-265,-46,344,-398,-29,-3,-261,-224,486,-777,-13,31,-257,-80,513,-1010,-12,56,-260,-140,476,-1106,-5,69,-270,-285,346,-1163,-7,82,-242,70,261,-978,-9,99,-234,-169,160,-886,-5,132,-239,-4,188,-698,-5,145,-242,-33,142,-453,0,135,-248,-49,73,-218,-3,118,-248,17,-11,-21,-4,85,-254,-22,10,13,2,71,-255,19,-11,20,2,76,-256,5,12,-27,2,76,-257,7,45,-40,4,78,-256,2,42,-40
right,1,86,-253,35,40,-19,0,82,-253,23,45,-33,2,80,-253,-16,14,-2,0,81,-254,29,13,-14,3,97,-252,24,-12,49,0,120,-249,116,19,163,1,138,-234,45,-72,375,-5,144,-233,71,-205,702,-19,132,-242,110,-331,982,-19,103,-254,236,-411,1201,-20,64,-261,149,-444,1176,-20,8,-272,22,-324,1040,-19,-13,-272,66,-266,714,-27,-46,-284,33,-59,211,-23,-42,-284,-18,271,-458,-9,-15,-271,58,433,-890,-12,17,-255,-142,447,-1121,-6,65,-249,-86,433,-1132,1,109,-247,-22,354,-960,8,135,-241,99,131,-617,-8,111,-251,-54,72,-485,-2,122,-249,9,53,-307,0,111,-253,-19,72,-175,2,90,-253,-22,32,-35,2,70,-249,25,15,-24,5,72,-249,-9,12,-54,4,79,-258,57,-4,-31,5,76,-258,0,8,-40,3,72,-258,-9,14,-13,6,70,-261,15,20,-25
right,5,77,-257,26,52,-42,3,75,-254,35,25,-20,1,72,-252,21,26,-37,7,74,-254,57,-2,-21,6,102,-252,27,-11,45,2,135,-243,58,-73,288,-4,147,-235,68,-162,625,-12,126,-244,101,-260,900,-19,104,-250,242,-319,1089,-18,54,-260,174,-342,1138,-14,26,-265,239,-355,1069,-14,-1,-276,156,-261,842,-13,-35,-279,225,-194,567,-30,-75,-287,15,53,-78,-14,-56,-281,-60,387,-697,-5,-13,-275,-243,450,-1090,-14,-13,-267,-198,451,-1252,-4,73,-251,-90,419,-1212,8,102,-236,82,230,-959,9,137,-228,16,20,-614,-10,128,-245,-148,-62,-397,-9,121,-255,-49,-40,-205,-3,87,-260,-42,-45,-76,-3,70,-259,-36,13,-63,2,69,-258,34,18,-46,2,69,-259,7,32,-42,3,69,-254,-20,56,-56,4,68,-257,5,18,-25,3,69,-259,3,31,-18,4,66,-256,-6,16,-15
right,3,71,-257,-3,3,-12,2,66,-256,34,37,-39,2,75,-256,-8,20,-30,4,87,-254,42,-10,53,1,105,-249,56,-50,177,-2,112,-251,93,-66,352,-10,128,-242,79,-46,538,1,121,-244,180,-275,901,-11,91,-247,209,-338,1077,-19,58,-257,-25,-342,1035,-13,30,-267,153,-342,992,-18,-15,-273,48,-313,804,-40,-73,-283,190,-141,325,-25,-59,-275,24,247,-415,-9,-24,-273,-23,372,-826,-11,-1,-264,-9,440,-1103,-1,41,-261,-97,430,-1182,-4,69,-260,-282,405,-1190,4,107,-250,-46,272,-925,2,121,-245,-142,139,-680,-2,128,-246,-127,44,-372,0,113,-242,75,-38,-146,0,95,-245,26,-49,-65,3,74,-253,-50,-43,-36,1,72,-258,15,-10,-25,3,71,-263,17,-4,-39,3,68,-259,31,27,-38,4,67,-259,16,34,-30,4,71,-255,24,41,-28,2,68,-257,18,16,-26
right,1,66,-257,4,29,-28,2,70,-256,20,24,-37,2,84,-252,30,-10,21,2,121,-252,71,-3,173,-3,144,-236,34,-72,446,-9,143,-236,1,-215,824,-18,123,-243,192,-350,1143,-20,77,-254,301,-424,1341,-26,16,-266,335,-423,1335,-24,-26,-270,337,-386,1110,-26,-39,-276,224,-231,705,-26,-46,-277,302,-62,317,-29,-62,-271,-16,218,-262,-13,-43,-268,-214,334,-734,-12,-13,-274,-326,388,-1051,-12,5,-283,-406,378,-1305,-13,59,-274,-345,411,-1254,4,101,-250,105,289,-1024,-1,99,-241,-56,114,-780,0,120,-242,89,37,-507,-9,103,-247,-193,55,-452,-1,103,-250,3,46,-241,2,101,-252,69,16,-85,0,84,-255,-4,11,-39,4,73,-257,18,19,4,2,62,-258,39,18,5,2,64,-256,7,24,-9,4,65,-259,-6,17,-18,4,64,-260,13,18,-14,2,61,-260,10,35,-30
right,6,63,-257,-1,11,-41,4,68,-257,35,13,-24,3,64,-258,28,13,-30,-2,82,-257,37,47,-20,4,119,-247,50,31,127,0,149,-232,50,-62,462,-11,141,-234,71,-261,836,-18,117,-247,68,-343,1108,-22,78,-262,170,-447,1331,-25,30,-272,294,-453,1304,-24,-17,-280,235,-312,1017,-20,-33,-276,153,-165,625,-25,-52,-277,71,-7,158,-14,-27,-275,23,145,-232,-18,-22,-272,-102,269,-565,-15,-8,-268,-134,297,-804,-10,20,-260,-106,363,-967,-4,43,-261,-261,390,-1083,3,77,-258,-16,304,-980,5,72,-261,-190,207,-948,-8,105,-258,-293,122,-782,1,117,-248,-66,82,-497,1,117,-248,-48,63,-293,1,109,-248,62,14,-107,-1,85,-252,-44,1,-46,3,77,-258,-14,8,-39,5,77,-256,23,15,-17,4,65,-258,0,-3,-6,3,70,-258,7,18,-27,4,69,-257,11,13,-18
right,7,67,-259,-41,15,-43,4,69,-256,32,15,-31,5,69,-259,31,-2,-20,6,70,-258,54,11,4,4,73,-256,49,7,13,2,86,-257,34,27,59,-2,118,-248,105,76,180,3,136,-236,80,-81,506,-4,142,-236,85,-238,839,-19,113,-243,108,-350,1134,-26,87,-256,194,-419,1285,-33,25,-262,332,-406,1288,-25,-12,-270,318,-396,1094,-25,-44,-279,142,-255,697,-27,-62,-286,23,-30,143,-22,-59,-280,-124,268,-484,-7,-39,-278,-107,348,-831,-16,-3,-264,-123,365,-1083,-14,20,-259,-2,368,-1156,1,59,-266,-108,371,-1153,7,107,-255,-6,253,-847,3,115,-251,-40,43,-559,-7,95,-249,-59,-70,-313,-12,94,-250,-144,-36,-242,-4,67,-254,16,17,-145,2,67,-259,-14,0,-115,2,64,-261,-108,32,-127,4,70,-262,28,40,-74,3,64,-261,-25,38,-49,2,60,-258,38,36,-7
right,2,63,-255,20,7,-30,2,67,-256,30,26,-29,2,57,-260,2,1,-19,1,59,-258,24,16,-27,2,64,-259,69,13,-8,3,75,-258,8,19,22,0,91,-255,85,-1,159,-2,104,-249,77,3,298,1,131,-238,83,-82,610,-10,117,-247,118,-253,960,-16,97,-255,281,-339,1266,-32,33,-261,377,-406,1378,-29,1,-263,530,-399,1237,-34,-55,-268,426,-311,946,-34,-77,-273,219,-183,515,-38,-96,-276,99,39,-30,-36,-83,-267,-145,262,-603,-25,-51,-264,-484,359,-1043,-14,2,-274,-368,343,-1224,-13,16,-279,-430,292,-1297,-11,63,-254,-321,189,-1164,-10,90,-248,-85,90,-879,-11,116,-246,-96,96,-650,-19,101,-252,-144,79,-477,-15,110,-248,-108,87,-326,-5,83,-257,-136,60,-204,-5,82,-257,-29,43,-119,-4,69,-255,31,39,-75,-1,66,-256,5,33,-60,-1,65,-258,-2,29,-43
right,0,64,-260,10,21,-24,-4,64,-255,14,46,-36,-2,62,-257,-26,11,-28,-1,68,-258,10,22,-23,1,65,-256,9,2,-9,-5,79,-258,-4,26,4,-2,111,-253,135,36,157,-12,129,-239,61,32,323,-12,141,-239,36,-112,683,-15,119,-245,311,-320,1108,-22,86,-255,60,-227,1183,-16,65,-263,103,-373,1357,-30,11,-263,370,-397,1365,-29,-74,-277,322,-360,1011,-38,-96,-286,306,-41,310,-17,-86,-279,-9,277,-438,-3,-40,-273,-35,357,-818,-11,-9,-264,-32,371,-992,-7,24,-258,-130,374,-1093,-1,59,-258,-144,368,-1057,3,66,-256,-136,223,-948,1,68,-254,-183,90,-812,1,88,-248,-73,39,-633,5,105,-249,-137,25,-436,2,103,-255,-15,-10,-222,1,90,-253,-44,-14,-137,6,77,-259,-37,-23,-61,5,76,-258,52,-6,9,1,55,-261,-39,18,-20,4,55,-259,-22,26,-22
right,5,60,-258,41,0,-15,4,65,-260,13,25,-22,6,64,-260,25,19,-7,4,66,-257,38,29,-3,4,67,-256,64,18,28,3,78,-255,62,18,58,2,98,-252,70,10,183,1,108,-248,8,-15,351,8,119,-246,49,-137,664,-2,92,-251,160,-249,905,-6,74,-256,178,-283,1070,-7,34,-262,238,-355,1152,-15,10,-265,273,-350,1035,-15,-18,-268,295,-299,845,-25,-65,-284,241,-191,471,-33,-82,-282,-10,178,-161,-10,-56,-262,9,333,-612,-8,-26,-259,-318,338,-954,-9,-3,-256,-472,330,-1175,-13,64,-258,-459,249,-1231,-7,61,-265,-119,155,-1089,-7,116,-241,-193,24,-851,-14,133,-244,-210,-22,-539,-16,141,-244,111,5,-254,-17,105,-250,-86,9,-135,-12,97,-251,46,18,-20,-7,67,-255,1,15,7,-7,61,-257,-7,14,-28,1,64,-258,33,14,-28,-7,71,-258,43,-2,-24
right,-6,66,-257,4,37,-43,-6,69,-255,45,35,-33,-8,69,-255,4,40,-36,-1,79,-255,21,3,-4,-10,99,-249,51,24,55,-9,120,-243,27,-46,232,-17,129,-240,69,-98,468,-18,131,-244,34,-147,715,-18,117,-250,60,-313,1022,-24,85,-255,239,-357,1210,-32,37,-258,349,-365,1200,-32,1,-264,395,-282,1000,-19,-33,-266,330,-281,736,-27,-54,-274,180,-132,293,-34,-63,-282,-79,168,-312,-19,-43,-271,-192,338,-774,-27,-9,-271,-344,341,-1065,-22,26,-262,-23,339,-1069,-12,67,-246,-243,280,-1059,-9,91,-249,-12,163,-802,-17,74,-256,-248,75,-730,-15,119,-254,-167,81,-532,-9,114,-256,-30,30,-320,-13,97,-254,18,-7,-127,-18,83,-250,6,51,-66,-10,65,-253,-47,10,-31,-10,59,-259,62,6,-17,-8,59,-259,-49,31,-63,-8,68,-259,66,18,-24,-10,65,-260,8,22,-19
right,-11,60,-258,25,36,-21,-10,63,-256,11,35,-31,-8,66,-256,9,42,-23,-8,79,-252,31,-1,45,-5,120,-248,79,-4,198,-14,125,-246,49,-78,495,-16,137,-240,137,-173,785,-23,104,-249,174,-279,1042,-33,69,-255,191,-282,1141,-37,56,-257,256,-247,1152,-29,16,-257,340,-334,1117,-28,-43,-269,442,-382,885,-42,-81,-279,132,-123,310,-37,-70,-274,-38,183,-322,-27,-46,-271,-126,306,-737,-23,2,-262,-63,332,-945,-34,1,-275,-479,337,-1225,-27,31,-266,-195,292,-1259,-30,79,-256,-461,237,-1220,-12,124,-242,75,84,-823,-23,131,-235,-358,134,-616,-23,137,-241,-58,87,-348,-12,92,-258,-20,12,-152,-11,95,-254,2,16,-90,-11,74,-255,10,7,-17,-10,68,-257,27,25,-14,-8,66,-254,9,15,-19,-7,66,-258,-3,17,-30,-11,66,-257,34,14,-21,-9,68,-256,-7,25,-33
right,-7,72,-254,26,6,-18,-11,73,-255,14,3,4,-10,92,-256,68,39,66,-13,107,-255,173,-15,270,-19,123,-244,21,39,432,-9,110,-243,138,-179,739,-30,103,-245,143,-107,844,-26,80,-249,139,-265,1037,-26,64,-256,138,-330,1116,-26,44,-261,405,-340,1125,-28,-6,-269,290,-262,908,-26,-60,-276,201,-237,605,-44,-91,-280,29,-12,20,-27,-56,-271,-4,267,-591,-26,-38,-270,-275,307,-930,-30,3,-258,-51,317,-1100,-28,42,-254,-108,266,-1148,-10,84,-247,-39,157,-958,-16,109,-250,-295,145,-790,-27,91,-254,-76,67,-609,-20,104,-256,-175,49,-459,-13,96,-257,-80,40,-284,-14,75,-255,-35,34,-147,-17,70,-254,-27,55,-104,-10,62,-254,-43,18,-66,-14,66,-258,43,20,-33,-15,64,-257,-15,28,-51,-13,61,-259,3,12,-1,-12,61,-260,20,23,-3,-10,61,-257,26,34,1
right,-9,61,-254,14,17,-16,-11,72,-254,18,27,6,-12,85,-252,39,-11,96,-14,113,-249,168,-4,251,-14,121,-241,76,-80,500,-21,121,-239,112,-199,796,-33,102,-246,278,-313,1081,-34,72,-255,232,-410,1255,-46,28,-262,264,-397,1244,-51,-26,-271,329,-357,1042,-51,-67,-282,286,-226,638,-41,-61,-278,142,81,69,-29,-53,-270,-11,283,-388,-29,-29,-274,-182,333,-721,-32,-15,-264,-286,399,-995,-27,18,-248,-62,347,-1064,-16,46,-244,-422,280,-1138,-12,89,-247,-54,220,-943,-22,76,-261,-259,146,-870,-22,79,-258,-24,91,-690,-16,110,-246,-23,48,-488,-16,103,-254,-47,51,-333,-16,81,-256,-58,64,-232,-10,75,-256,-32,52,-168,-8,74,-256,-19,26,-78,-10,65,-256,50,9,-10,-9,56,-258,-9,12,-17,-9,59,-259,22,34,-26,-11,59,-258,32,38,-30,-11,60,-256,27,17,-16
right,-10,59,-257,16,24,-17,-6,70,-257,17,-19,27,-16,93,-259,111,18,95,-12,120,-247,103,-8,317,-16,123,-240,74,-100,595,-24,101,-250,90,-183,850,-25,100,-248,228,-272,1105,-31,62,-258,207,-288,1200,-34,22,-266,303,-300,1209,-36,-17,-264,379,-293,1053,-35,-64,-276,223,-222,697,-44,-74,-273,174,-23,182,-34,-69,-280,-229,227,-472,-20,-47,-268,-80,301,-789,-28,-4,-256,-341,275,-1049,-26,16,-258,-209,289,-1131,-25,73,-248,-294,265,-1123,-22,98,-252,-193,167,-935,-21,111,-251,-131,36,-679,-25,111,-249,-15,-7,-413,-20,92,-250,71,12,-298,-19,86,-252,-69,48,-221,-14,75,-257,7,49,-104,-15,74,-258,22,17,-27,-13,55,-263,-36,26,-8,-10,52,-259,39,21,-13,-11,58,-255,-10,34,-47,-10,50,-256,-26,3,-39,-11,62,-261,52,10,-18,-15,60,-261,7,24,-23
right,-18,65,-259,3,76,-27,-14,89,-256,72,82,73,-17,112,-249,55,92,235,-12,130,-238,-14,-5,525,-20,106,-249,-138,-203,846,-25,113,-249,91,-306,1080,-28,67,-258,34,-320,1197,-36,37,-260,147,-366,1188,-35,4,-265,292,-362,1056,-30,-36,-275,332,-256,735,-31,-71,-280,164,-66,233,-30,-56,-281,13,216,-355,-23,-49,-273,-118,318,-769,-32,-26,-262,-67,329,-1040,-17,35,-256,-55,375,-1161,-30,58,-252,-226,307,-1169,-14,109,-246,-52,252,-1013,-5,105,-255,-121,73,-707,-16,112,-250,43,-24,-439,-20,85,-253,-39,15,-337,-12,88,-255,62,28,-193,-7,75,-257,-3,37,-117,-8,70,-257,12,35,-45,-9,54,-258,-10,18,-38,-6,53,-258,13,20,-39,-8,52,-259,1,23,-41,-7,52,-260,-46,23,-53,-9,60,-262,28,27,-20,-8,60,-260,16,17,10,-8,59,-257,29,40,16
