Lable,AccX1,AccY1,AccZ1,GyrX1,GyrY1,GyrZ1,AccX2,AccY2,AccZ2,GyrX2,GyrY2,GyrZ2,AccX3,AccY3,AccZ3,GyrX3,GyrY3,GyrZ3,AccX4,AccY4,AccZ4,GyrX4,GyrY4,GyrZ4,AccX5,AccY5,AccZ5,GyrX5,GyrY5,GyrZ5,AccX6,AccY6,AccZ6,GyrX6,GyrY6,GyrZ6,AccX7,AccY7,AccZ7,GyrX7,GyrY7,GyrZ7,AccX8,AccY8,AccZ8,GyrX8,GyrY8,GyrZ8,AccX9,AccY9,AccZ9,GyrX9,GyrY9,GyrZ9,AccX10,AccY10,AccZ10,GyrX10,GyrY10,GyrZ10,AccX11,AccY11,AccZ11,GyrX11,GyrY11,GyrZ11,AccX12,AccY12,AccZ12,GyrX12,GyrY12,GyrZ12,AccX13,AccY13,AccZ13,GyrX13,GyrY13,GyrZ13,AccX14,AccY14,AccZ14,GyrX14,GyrY14,GyrZ14,AccX15,AccY15,AccZ15,GyrX15,GyrY15,GyrZ15,AccX16,AccY16,AccZ16,GyrX16,GyrY16,GyrZ16,AccX17,AccY17,AccZ17,GyrX17,GyrY17,GyrZ17,AccX18,AccY18,AccZ18,GyrX18,GyrY18,GyrZ18,AccX19,AccY19,AccZ19,GyrX19,GyrY19,GyrZ19,AccX20,AccY20,AccZ20,GyrX20,GyrY20,GyrZ20,AccX21,AccY21,AccZ21,GyrX21,GyrY21,GyrZ21,AccX22,AccY22,AccZ22,GyrX22,GyrY22,GyrZ22,AccX23,AccY23,AccZ23,GyrX23,GyrY23,GyrZ23,AccX24,AccY24,AccZ24,GyrX24,GyrY24,GyrZ24,AccX25,AccY25,AccZ25,GyrX25,GyrY25,GyrZ25,AccX26,AccY26,AccZ26,GyrX26,GyrY26,GyrZ26,AccX27,AccY27,AccZ27,GyrX27,GyrY27,GyrZ27,AccX28,AccY28,AccZ28,GyrX28,GyrY28,GyrZ28,AccX29,AccY29,AccZ29,GyrX29,GyrY29,GyrZ29,AccX30,AccY30,AccZ30,GyrX30,GyrY30,GyrZ30

tiltl,-29,93,-250,7,11,-12,-29,89,-250,-6,20,-6,-30,87,-249,24,10,1,-30,86,-246,43,13,-8,-30,87,-248,7,9,-25,-29,88,-249,4,-1,-25,-30,89,-250,19,0,-15,-33,89,-249,29,-8,-12,-31,87,-251,43,14,-21,-31,87,-249,28,20,-27,-32,88,-248,25,19,-28,-32,86,-247,14,8,-15,-31,88,-250,0,-12,-3,-31,89,-250,17,-4,3,-33,88,-252,28,7,-3,-31,87,-249,6,20,-4,-30,85,-249,35,15,-8,-31,86,-248,9,11,-11,-30,86,-248,24,7,-7,-32,87,-249,15,5,-9,-32,88,-250,25,17,-14,-30,85,-250,30,16,-10,-32,87,-251,14,2,-8,-32,85,-248,20,18,-8,-35,87,-245,24,5,-9,-33,85,-250,9,-5,-18,-32,86,-251,32,0,-12,-32,84,-250,18,6,-15,-31,87,-248,11,11,-14,-33,85,-249,33,9,-11
tiltl,-32,87,-248,35,10,-20,-34,82,-250,84,-9,-16,-35,80,-250,8,1,-21,-35,83,-249,20,3,-16,-35,83,-252,21,8,-13,-33,82,-251,-10,12,-14,-34,74,-254,-274,42,-24,-42,69,-256,-1397,288,20,-31,115,-247,-2097,412,10,-16,168,-196,-2147,535,-61,-8,202,-160,-2064,500,-247,-7,240,-119,-1455,309,-234,-16,255,-117,-519,89,-98,-16,249,-118,147,19,29,-5,263,-115,1233,-271,90,-20,215,-158,1812,-279,62,-13,178,-185,2953,-545,-50,-33,114,-228,2435,-328,-61,-31,95,-237,1807,-243,-125,-32,68,-249,1547,-214,-88,-51,12,-265,1029,-167,-75,-45,9,-265,611,-90,-35,-46,-4,-267,-28,31,-5,-48,5,-260,-19,26,-11,-44,10,-258,-51,26,-31,-47,9,-259,-80,34,-20,-45,13,-259,-100,25,-17,-47,18,-259,52,11,-15,-46,12,-257,-20,16,-13,-45,16,-261,-31,19,-12
tiltl,-44,13,-258,-7,19,-8,-44,14,-258,-22,-3,-10,-47,12,-259,-87,41,1,-45,18,-258,14,9,-20,-45,17,-259,9,20,-24,-45,21,-259,35,13,-24,-47,18,-259,-28,19,-21,-43,24,-261,-243,68,8,-41,38,-257,-220,37,-33,-45,14,-270,-1731,301,60,-35,84,-246,-1990,316,26,-24,95,-220,-2973,599,157,-12,175,-182,-2824,541,124,-2,232,-141,-1178,185,-99,-7,244,-133,-502,49,-100,-9,252,-135,373,-170,20,-8,230,-136,1424,-395,-4,-22,203,-183,3353,-727,-203,-43,99,-231,2691,-455,-176,-42,80,-249,1994,-309,-176,-48,41,-254,1616,-243,-145,-40,23,-259,824,-139,-52,-59,-5,-265,357,-9,-24,-51,3,-257,25,37,-13,-55,2,-256,30,50,8,-55,0,-257,-24,28,12,-55,4,-255,-106,38,2,-51,4,-258,-15,21,-17,-52,7,-254,4,20,-15,-51,6,-258,12,14,-8
tiltl,-52,9,-256,17,9,-7,-55,3,-258,25,19,-7,-53,4,-257,19,4,-23,-54,4,-256,8,6,-11,-55,5,-257,21,8,-26,-52,6,-257,7,23,-13,-55,5,-258,10,9,-10,-54,4,-259,-64,28,-2,-57,-5,-267,-521,132,38,-54,7,-266,-909,219,65,-46,32,-265,-2298,492,185,-22,107,-237,-3011,595,248,-15,151,-202,-2794,622,244,4,215,-153,-1411,239,-75,-7,229,-147,-541,95,-69,-6,236,-148,-37,1,-39,1,227,-138,794,-264,0,-6,233,-151,3110,-751,-248,-22,129,-205,3461,-704,-241,-45,54,-245,2974,-497,-270,-51,1,-265,1799,-288,-137,-59,-28,-268,328,-48,-26,-56,-6,-259,-135,19,-21,-58,-3,-259,-264,84,-19,-57,5,-258,-33,33,-44,-54,6,-257,-68,41,-20,-57,4,-257,-15,37,-15,-54,10,-256,-160,48,-15,-55,8,-256,-20,31,-11,-54,7,-258,-32,27,-12
tiltl,-54,6,-258,-108,50,-7,-53,8,-258,5,31,-17,-53,6,-256,19,25,-27,-53,10,-257,24,15,-21,-53,12,-255,43,15,-24,-51,8,-255,12,0,-28,-52,12,-256,4,23,-17,-53,9,-260,-135,46,-2,-51,20,-260,-452,108,4,-57,4,-273,-2021,455,126,-50,64,-256,-2608,552,164,-23,133,-211,-3045,761,227,9,217,-156,-1559,387,35,0,212,-161,-801,147,-132,-8,227,-154,-131,-58,-57,-11,233,-159,601,-174,7,1,238,-153,2114,-512,-217,1,143,-199,3488,-696,-250,-41,59,-257,2450,-377,-193,-51,28,-258,2027,-323,-203,-53,3,-264,1294,-150,-103,-60,-36,-268,179,32,-3,-51,1,-249,-47,1,-22,-54,-13,-258,-498,127,55,-53,5,-253,-6,9,-5,-49,9,-253,-224,37,6,-54,2,-262,-40,20,13,-54,4,-259,36,0,-17,-52,4,-259,55,15,-12,-52,5,-259,9,34,-21
tiltl,-51,3,-257,46,21,-21,-51,5,-259,0,19,-28,-51,2,-257,35,13,-23,-53,2,-257,-3,20,-18,-52,2,-259,8,14,-14,-54,1,-259,-76,31,-6,-51,11,-255,9,21,-36,-49,4,-259,-82,34,-8,-55,-7,-268,-1178,259,79,-45,41,-258,-1635,362,55,-42,50,-271,-3470,782,277,-9,150,-195,-3320,818,245,0,214,-163,-849,348,-4,10,216,-154,-502,128,-56,1,219,-151,176,-125,0,6,227,-153,1333,-373,-117,-12,178,-189,2885,-684,-268,-29,100,-232,2311,-475,-147,-37,82,-252,1984,-445,-147,-54,18,-269,1464,-235,-32,-52,-1,-265,1069,-156,-33,-52,-13,-260,287,4,1,-54,-14,-257,48,40,-14,-50,-13,-258,-46,42,-20,-48,1,-254,-162,57,-30,-51,-7,-257,-83,43,-26,-49,1,-259,8,5,-30,-50,-1,-260,31,6,-14,-50,0,-258,-6,5,-12,-48,-1,-259,16,16,-16
tiltl,-46,1,-257,17,21,-14,-50,0,-258,-3,8,-9,-49,1,-257,48,17,-13,-47,-3,-259,7,4,-16,-48,-1,-259,19,11,-22,-48,-2,-258,8,9,-8,-47,0,-257,-22,18,-18,-48,-1,-259,-27,25,-5,-55,-17,-272,-840,202,64,-47,19,-262,-935,237,9,-50,8,-266,-2461,632,169,-29,91,-246,-3882,992,265,25,235,-148,-2209,598,46,7,211,-166,-795,247,-100,5,224,-156,-142,-1,-78,7,229,-148,602,-235,2,3,217,-169,2061,-607,-154,-21,149,-214,2704,-673,-193,-39,77,-241,2557,-472,-178,-37,49,-257,2475,-446,-183,-51,-16,-273,1385,-214,-92,-53,-29,-268,205,0,-17,-46,-6,-256,-32,42,-33,-47,-14,-258,-271,103,-3,-48,-9,-259,-64,38,-18,-46,-5,-259,22,3,-27,-44,-3,-258,22,-2,-15,-47,-7,-261,-48,13,-13,-46,-4,-261,1,13,-12,-47,-7,-261,30,18,-7
tiltl,-48,-8,-259,-2,17,-12,-48,-4,-257,53,13,-23,-47,-7,-255,9,8,-22,-46,-4,-257,7,23,-13,-47,-6,-259,-15,6,-19,-46,-4,-260,-55,14,-13,-46,-7,-262,-70,25,-1,-48,-6,-263,-673,133,15,-56,-11,-275,-2231,505,138,-36,57,-239,-3678,766,222,0,159,-180,-3667,910,244,7,201,-175,-963,290,-108,6,233,-153,-313,37,-108,3,229,-159,396,-143,17,6,230,-158,2112,-600,-172,-34,169,-204,3054,-790,-213,-39,77,-252,2427,-446,-132,-43,46,-259,1933,-327,-116,-48,2,-268,1164,-157,-53,-50,-11,-261,615,-58,-14,-49,-14,-257,-90,53,14,-52,-9,-257,-29,45,-7,-49,-9,-257,-63,22,-25,-50,-5,-258,-5,21,-22,-48,0,-258,-60,11,-26,-47,-1,-260,11,16,-24,-49,-3,-258,-59,40,-16,-51,-5,-259,25,30,-18,-48,0,-256,15,12,-28,-47,0,-257,27,9,-15
tiltl,-46,-1,-259,2,0,-13,-48,-2,-260,23,21,-14,-48,-2,-259,25,16,-13,-48,-1,-257,8,25,-14,-47,1,-258,-88,28,-7,-48,3,-263,-356,95,6,-47,7,-268,-347,130,45,-41,11,-263,-1695,366,121,-39,52,-267,-2578,546,155,-20,118,-225,-2878,743,238,11,206,-168,-2019,568,116,9,211,-174,-438,218,-47,10,216,-163,248,-81,-30,15,233,-151,1749,-529,-188,-13,160,-205,3052,-756,-250,-38,52,-258,2393,-468,-163,-42,35,-257,2093,-409,-161,-45,2,-264,1005,-116,-32,-50,-18,-265,445,-40,0,-46,-13,-259,-77,51,13,-44,-11,-256,-4,34,-10,-42,-5,-256,-96,21,-10,-45,-6,-263,-95,34,6,-44,2,-258,-24,0,-6,-44,-5,-262,-11,27,-4,-44,-3,-261,12,28,-2,-44,-2,-259,15,20,-17,-46,-2,-257,19,27,-13,-44,-7,-259,-81,38,-12,-43,-4,-260,4,8,-13
tiltl,-44,2,-258,26,5,-23,-45,-1,-259,28,8,-20,-44,1,-259,26,11,-15,-43,1,-260,34,12,-14,-46,-4,-262,-36,9,-16,-46,-2,-262,2,32,-14,-43,-6,-263,-126,28,-5,-51,-18,-274,-1207,275,89,-55,-11,-274,-2696,640,196,-29,82,-230,-3422,802,264,23,228,-163,-2320,558,79,9,193,-179,-523,165,3,2,202,-183,-19,-8,-51,3,216,-175,677,-186,-49,7,199,-186,2278,-591,-255,-21,123,-232,2581,-574,-205,-30,74,-250,2142,-422,-172,-42,26,-261,1926,-359,-167,-44,0,-263,1160,-152,-77,-50,-29,-264,479,-32,-13,-48,-29,-261,-41,41,8,-44,-15,-251,89,5,-12,-47,-27,-257,-133,33,-1,-46,-19,-258,-286,51,4,-47,-15,-261,-225,46,6,-42,15,-255,82,-38,-55,-46,-13,-264,-263,75,14,-42,5,-256,55,-11,-22,-44,-7,-262,-6,22,-9,-43,4,-254,112,5,-28
tiltl,-47,-11,-262,74,21,-12,-43,1,-257,8,16,-20,-45,-6,-258,4,16,-13,-44,-2,-257,7,13,-20,-45,-5,-262,-1,16,-11,-45,-6,-263,-53,31,-6,-44,-8,-264,-261,81,-2,-46,-10,-274,-1051,293,80,-35,28,-261,-2105,457,144,-26,64,-247,-3151,750,244,-4,146,-196,-3112,838,211,14,216,-167,-611,237,-78,12,207,-174,-12,53,-70,10,207,-173,638,-206,-58,8,200,-180,2178,-639,-235,-15,135,-224,2538,-644,-187,-37,67,-254,2324,-511,-161,-44,23,-263,1865,-339,-118,-49,-20,-270,1114,-139,-57,-46,-34,-266,188,57,20,-45,-10,-256,-8,56,-19,-43,-14,-257,-224,94,9,-41,-6,-255,-313,80,-12,-39,3,-256,-153,39,-24,-41,2,-261,-80,14,-2,-40,13,-255,77,-8,-27,-40,4,-262,-62,33,-10,-40,11,-259,-29,27,-20,-39,2,-260,44,32,-15,-38,4,-258,38,6,-27
tiltl,-39,4,-258,56,11,-19,-39,7,-258,88,-8,-31,-39,1,-261,-34,15,-17,-39,2,-257,-25,8,-11,-38,5,-259,-36,15,-22,-38,4,-260,15,14,-17,-41,2,-264,-142,48,3,-44,-6,-272,-789,201,49,-39,25,-262,-798,216,-22,-34,24,-269,-1793,466,98,-25,69,-246,-2567,610,166,1,144,-217,-2959,817,177,17,205,-163,-913,300,-90,11,212,-172,-421,68,-127,4,220,-173,298,-128,-23,17,217,-169,1241,-410,-91,-1,175,-212,2471,-654,-183,-34,79,-238,2920,-607,-172,-34,56,-257,2187,-420,-166,-44,0,-263,1600,-233,-75,-46,-22,-266,479,-39,-2,-44,-13,-261,-81,37,14,-44,-16,-260,-125,68,-7,-39,-11,-256,83,16,-34,-41,-11,-262,-88,33,-5,-37,18,-251,-113,16,-34,-42,-9,-263,-32,35,-6,-39,3,-255,115,-20,-37,-40,-2,-259,2,10,-14,-41,-1,-259,11,22,-11
tiltl,-43,-5,-258,2,7,-20,-41,-4,-260,16,17,-18,-43,-3,-261,-6,13,-17,-41,0,-259,12,10,-11,-41,-5,-260,-1,23,-6,-41,-4,-259,17,25,-4,-42,-2,-259,17,23,-10,-39,-5,-261,-84,14,-3,-45,-16,-273,-907,214,77,-42,15,-267,-1509,344,82,-27,47,-250,-3073,657,275,-21,91,-230,-3073,823,263,20,215,-165,-1405,479,14,18,200,-183,-281,144,-36,14,210,-173,303,-121,-32,15,220,-173,1942,-560,-205,-6,148,-217,3100,-826,-372,-24,55,-253,2342,-491,-181,-39,15,-267,1777,-318,-125,-41,-8,-273,934,-100,-42,-45,-32,-268,12,87,27,-39,-14,-256,-8,64,-11,-37,-8,-254,39,23,-25,-39,-8,-258,-67,35,-16,-40,-7,-259,7,8,-7,-39,-10,-264,-124,26,-6,-39,-7,-262,101,5,-23,-37,-5,-261,-14,18,-23,-37,-2,-263,39,29,-17,-36,-5,-260,44,16,-8
tiltl,-38,-5,-258,60,24,-23,-37,0,-259,51,14,-14,-38,-7,-262,25,10,-27,-36,-3,-261,-3,17,-13,-36,-8,-261,3,12,-17,-35,-5,-260,37,3,-19,-38,-6,-259,26,3,-20,-37,-3,-260,-3,0,-16,-39,-6,-265,-248,56,4,-39,1,-268,-1160,238,46,-30,37,-260,-1410,343,41,-31,34,-266,-3011,725,198,1,132,-184,-3928,948,264,13,218,-168,-451,166,12,16,208,-173,44,-33,-34,16,216,-172,377,-176,-54,17,213,-183,2147,-587,-206,-6,144,-213,3229,-743,-347,-32,47,-262,2337,-473,-193,-45,-7,-271,1980,-363,-165,-45,-28,-272,908,-125,-69,-48,-44,-267,-37,54,9,-42,-24,-259,-168,66,-5,-40,-13,-257,-139,66,-13,-42,-21,-261,-183,76,-8,-39,-9,-259,-288,70,-18,-39,-4,-261,16,21,-28,-34,2,-259,-98,20,-29,-38,-1,-262,9,17,-3,-39,-6,-263,-135,46,-7
tiltl,-36,5,-256,73,9,-41,-38,0,-261,-29,30,-21,-36,-2,-263,11,21,-23,-36,0,-262,-20,34,-26,-36,-2,-261,12,36,-21,-35,-1,-262,-12,5,-19,-37,1,-261,17,21,-6,-38,-4,-264,-136,37,8,-43,-16,-275,-1368,298,117,-24,51,-253,-1368,289,43,-27,36,-261,-2934,618,339,-3,145,-222,-2605,557,179,24,223,-159,-1277,261,9,12,195,-188,-131,24,-21,6,199,-189,381,-128,-49,12,211,-183,2272,-577,-260,-1,137,-213,3188,-734,-295,-26,61,-249,2837,-543,-288,-44,-9,-271,1873,-311,-154,-45,-29,-264,488,-14,-36,-40,-15,-255,-102,64,-23,-39,-25,-258,-136,101,11,-39,-17,-254,185,-10,-42,-39,-15,-257,-32,32,-15,-39,-19,-259,23,27,-13,-36,-16,-260,-6,17,-19,-39,-14,-260,-26,28,3,-36,-14,-261,-44,16,-13,-39,-15,-258,-7,27,-19,-38,-16,-259,-131,41,-20
tiltl,-40,-16,-262,13,21,-23,-39,-16,-263,0,9,-22,-39,-17,-263,-2,20,-19,-37,-14,-260,13,19,-14,-38,-16,-262,-27,9,-7,-39,-14,-259,-1,29,4,-39,-17,-261,-48,4,-9,-40,-17,-269,-310,69,7,-40,-16,-271,-1417,299,87,-34,26,-264,-2069,451,78,-11,69,-231,-3483,833,270,9,180,-193,-2740,714,163,20,209,-175,-518,299,19,24,204,-168,-35,18,-59,12,216,-180,632,-234,-58,10,196,-186,2316,-666,-237,-18,116,-238,2682,-628,-190,-26,68,-250,2649,-521,-238,-33,16,-264,1939,-336,-126,-43,-39,-272,1054,-116,-39,-45,-48,-261,462,-37,-36,-42,-47,-260,-355,125,10,-40,-23,-254,-6,45,-37,-37,-29,-257,-184,73,-7,-38,-24,-259,-204,71,-2,-32,-12,-255,2,10,-17,-37,-22,-259,-152,59,9,-39,-22,-263,12,17,-13,-38,-18,-262,-22,12,-15,-33,-15,-259,-36,19,-12
tiltl,-38,-21,-263,-238,59,15,-35,-7,-259,104,3,-51,-37,-12,-259,10,6,-26,-36,-7,-259,39,5,-12,-38,-12,-262,37,1,-18,-33,-11,-262,39,5,-13,-34,-12,-261,-51,30,-3,-38,-19,-267,-364,102,27,-42,-25,-275,-1789,405,126,-31,19,-272,-3113,729,237,-6,115,-226,-2713,660,186,11,170,-201,-2094,630,213,22,193,-183,-468,213,-7,21,208,-183,107,9,-60,26,213,-173,1215,-324,-137,6,164,-199,2735,-681,-257,-12,89,-237,2912,-686,-269,-31,16,-270,2107,-434,-153,-34,-13,-273,1370,-217,-84,-39,-39,-277,301,-27,-6,-36,-15,-255,149,8,-25,-31,-22,-256,-6,45,-25,-33,-21,-256,8,25,-17,-38,-26,-258,-117,40,-16,-37,-24,-263,-33,22,-7,-34,-21,-261,-28,15,-28,-35,-20,-259,19,27,-28,-34,-16,-258,35,11,-26,-35,-19,-257,24,17,-23,-36,-18,-258,15,23,-11
tiltl,-34,-24,-262,-18,9,-20,-33,-15,-259,57,6,-25,-32,-19,-261,3,18,-9,-33,-20,-262,-43,27,-4,-35,-18,-259,24,13,-10,-33,-17,-260,17,17,-22,-31,-20,-262,-22,31,-8,-35,-23,-266,-526,135,45,-32,-11,-267,-1521,358,90,-29,17,-274,-2278,558,164,2,109,-219,-3437,861,250,44,221,-161,-2123,580,141,25,187,-194,-366,192,38,29,194,-184,34,-19,-36,23,199,-183,738,-204,-52,15,181,-196,2543,-647,-250,-5,107,-233,2911,-671,-261,-18,34,-262,2237,-459,-220,-25,2,-261,1525,-249,-145,-25,-27,-271,830,-96,-60,-28,-36,-266,141,11,-9,-27,-24,-256,67,17,-12,-28,-27,-259,-22,34,-24,-25,-27,-263,-75,35,-7,-25,-16,-258,13,1,-31,-26,-21,-261,-60,32,-10,-28,-11,-257,48,0,-24,-27,-18,-261,-28,29,-14,-28,-20,-259,21,9,-6,-29,-23,-264,-56,19,-13
tiltl,-21,-4,-255,79,0,-26,-25,-18,-262,-40,17,-6,-24,-12,-259,89,2,-23,-25,-20,-262,3,21,-12,-24,-16,-261,19,21,-16,-26,-21,-259,-17,18,-8,-27,-18,-263,-55,24,-8,-32,-26,-267,-493,131,34,-22,-2,-264,-1083,228,51,-19,12,-270,-1541,338,96,-7,52,-258,-2952,645,196,5,118,-230,-2933,768,274,41,220,-168,-1035,334,69,30,193,-183,-219,63,9,24,190,-186,244,-148,-31,28,203,-190,2007,-571,-218,10,138,-219,3378,-785,-427,-13,49,-261,2256,-505,-154,-30,4,-266,1712,-354,-130,-27,-27,-272,873,-139,-27,-36,-44,-270,6,23,48,-28,-18,-261,9,-1,-26,-28,-25,-263,-331,117,1,-27,-16,-260,-157,51,-25,-25,-9,-261,-344,78,-12,-23,2,-261,-86,13,-22,-24,-1,-263,33,11,-27,-25,2,-258,60,3,-20,-28,0,-262,35,4,-26,-27,0,-262,63,27,-19
tiltl,-25,-8,-263,23,17,-23,-25,-3,-259,19,25,-26,-23,-1,-259,49,-1,-36,-24,2,-259,0,23,-23,-26,-5,-262,-16,19,-6,-25,-2,-263,-24,23,-12,-27,-3,-262,-9,17,-13,-23,-2,-261,-44,30,-8,-26,-2,-265,-212,65,5,-27,-6,-271,-1146,285,86,-21,28,-266,-1749,422,91,9,62,-244,-2697,699,168,12,137,-213,-2888,778,264,34,193,-184,-578,293,27,32,196,-187,-69,62,-41,30,201,-185,528,-173,-22,24,188,-184,2469,-694,-258,-6,103,-232,3140,-778,-312,-23,25,-269,2079,-448,-173,-25,-9,-278,1271,-263,-81,-28,-25,-277,358,-47,30,-26,-16,-264,15,19,31,-29,-18,-265,-61,69,-3,-27,-19,-262,97,33,-31,-23,-9,-258,13,22,-40,-24,-13,-260,-31,37,-19,-22,0,-257,-43,16,-28,-26,-9,-263,-6,24,-10,-23,-1,-261,44,10,-24,-25,-11,-263,-23,20,-12
tiltl,-23,-9,-261,43,17,-13,-23,-10,-261,-13,5,-17,-24,-8,-262,18,12,-8,-25,-12,-261,-1,13,-14,-25,-7,-262,-4,13,-28,-23,-9,-264,-35,22,-19,-25,-13,-265,-279,91,-6,-22,-6,-269,-678,189,26,-19,10,-268,-1670,392,87,-9,41,-252,-3443,615,327,5,119,-227,-2984,854,289,38,206,-181,-533,249,28,35,191,-183,-270,78,-31,24,187,-193,123,-93,-47,37,211,-177,1665,-493,-211,11,146,-208,3361,-888,-286,-13,47,-261,2573,-604,-182,-24,9,-272,1570,-342,-70,-32,-24,-279,494,-78,15,-27,-18,-268,43,21,-14,-25,-14,-261,13,36,-26,-23,-4,-257,-170,72,-18,-25,1,-260,-39,37,-33,-27,-3,-263,-161,47,-11,-21,12,-258,8,12,-39,-21,2,-262,13,16,-35,-23,6,-260,48,19,-20,-23,3,-260,19,19,-31,-23,2,-263,1,16,-17,-22,-2,-260,14,5,-16
tiltl,-22,3,-260,16,3,-22,-22,3,-263,26,14,-17,-23,0,-262,18,17,-15,-23,3,-261,20,10,-17,-24,2,-262,23,21,-12,-24,0,-262,10,15,-14,-23,1,-264,-46,20,-5,-27,-4,-275,-668,186,51,-16,25,-258,-1814,434,102,-13,45,-264,-3110,752,264,16,148,-206,-2837,761,252,37,200,-181,-368,211,0,34,193,-189,5,54,-58,28,189,-197,438,-121,-25,27,185,-188,2362,-653,-281,7,118,-235,2645,-658,-250,-15,33,-266,2331,-469,-187,-20,2,-267,1732,-330,-139,-20,-18,-264,752,-96,-45,-27,-47,-268,36,53,28,-25,-25,-260,44,8,-15,-24,-34,-265,-184,85,16,-22,-16,-257,44,8,-23,-23,-25,-262,-70,27,5,-22,-17,-259,-104,32,-12,-23,-18,-261,-11,20,-22,-19,-10,-260,34,1,-36,-21,-21,-264,0,29,-8,-22,-16,-262,-43,16,-15,-22,-18,-264,3,23,-6
tiltl,-19,-16,-260,-2,15,-14,-20,-17,-261,37,14,-19,-23,-16,-261,-7,19,-12,-23,-18,-263,-132,44,-8,-20,-7,-263,-35,8,-29,-18,-12,-264,-142,44,-8,-23,-13,-268,-662,161,48,-14,6,-270,-1355,264,70,-12,38,-262,-2429,590,184,1,95,-238,-2873,756,250,36,187,-188,-1270,365,115,31,182,-199,-180,87,5,32,181,-196,358,-140,-42,31,187,-194,2372,-658,-278,7,119,-222,3393,-778,-363,-17,18,-259,2045,-524,-133,-26,-11,-266,1439,-346,-94,-28,-31,-272,920,-153,-47,-31,-57,-271,-236,87,37,-24,-19,-256,-455,116,3,-27,-23,-260,-513,188,5,-23,-4,-259,-136,71,-54,-21,7,-256,90,21,-56,-22,-2,-261,-21,31,-33,-23,0,-262,32,25,-36,-21,-2,-263,-4,24,-19,-19,2,-260,-37,27,-13,-20,1,-258,-7,15,-18,-19,0,-262,15,12,-14,-17,0,-262,2,17,-12
tiltl,-21,1,-261,-11,22,-7,-22,2,-261,3,16,-11,-21,0,-262,-20,20,-12,-20,0,-262,6,11,-9,-18,-6,-266,-76,19,-14,-20,2,-266,-308,104,5,-20,2,-268,-803,218,54,-20,12,-271,-1689,424,139,-11,51,-266,-2892,745,275,22,154,-211,-2705,745,182,47,200,-186,-295,166,14,33,181,-198,248,-53,-52,38,199,-187,1856,-544,-228,12,130,-218,3289,-887,-346,-17,33,-260,2758,-638,-189,-33,-33,-284,1295,-274,-63,-28,-33,-272,438,-56,-33,-24,-29,-265,-137,67,13,-26,-24,-260,-224,85,9,-24,-22,-262,2,66,-26,-18,-12,-258,-185,60,-43,-19,-12,-263,-74,54,-30,-17,-8,-260,-107,24,-33,-16,-5,-261,-74,40,-6,-19,-8,-262,-36,26,-13,-20,-8,-264,3,12,-33,-16,-7,-264,-78,33,-20,-18,-6,-264,-14,21,-27,-17,0,-263,-13,22,-15,-20,-1,-262,7,21,-15
tiltl,-15,-5,-262,1,22,-18,-17,-4,-260,-13,4,-10,-18,-2,-261,21,10,-8,-18,-4,-262,-2,5,-16,-16,-1,-265,-15,3,-12,-18,-1,-263,-92,38,3,-21,-11,-275,-629,120,38,-13,23,-264,-1617,378,86,-17,10,-260,-3231,850,306,17,133,-217,-2834,758,240,40,197,-177,-263,158,12,35,189,-196,143,-48,-32,35,194,-192,1181,-347,-143,18,143,-211,2908,-789,-291,-11,46,-248,2747,-654,-181,-26,-4,-268,2092,-474,-168,-33,-41,-276,1439,-234,-108,-30,-68,-269,590,-51,-44,-25,-57,-259,-210,64,-12,-34,-55,-258,-267,149,-2,-27,-44,-260,-514,143,-3,-21,-25,-256,-363,102,-17,-23,-30,-260,-111,56,-5,-22,-19,-261,-82,21,-34,-20,-21,-264,-16,24,-15,-20,-21,-264,-345,81,11,-23,-11,-262,175,4,-44,-18,-12,-261,21,17,-35,-19,-10,-261,34,22,-27,-19,-15,-263,6,-2,-28
tiltl,-21,-12,-263,28,13,-9,-18,-15,-263,19,9,-15,-18,-17,-264,7,13,-12,-17,-12,-261,25,17,-15,-19,-14,-262,-20,12,-20,-16,-13,-264,-234,65,8,-23,-14,-272,-881,199,45,-18,7,-270,-1711,381,97,1,58,-254,-3060,697,211,19,135,-208,-2380,630,201,44,203,-188,-819,257,45,34,184,-192,-19,22,-53,37,196,-189,1027,-292,-155,17,141,-215,2751,-710,-282,-10,65,-244,2919,-679,-255,-21,17,-268,1671,-375,-163,-23,-16,-272,914,-129,-49,-23,-43,-275,125,37,7,-20,-16,-258,-140,64,-7,-21,-25,-262,-161,82,-3,-18,-8,-259,-214,66,-5,-19,-5,-261,50,0,-34,-17,-2,-262,-178,42,-6,-16,1,-263,-70,29,-9,-15,2,-264,-13,11,-23,-15,0,-262,-16,46,-10,-17,4,-260,-24,25,-32,-14,2,-261,-8,33,-25,-13,2,-261,3,-1,-24,-16,3,-262,18,10,-15
tiltl,-16,4,-260,31,8,-15,-13,3,-264,-17,3,-12,-15,4,-263,0,20,0,-15,2,-263,-12,12,-6,-14,4,-261,-21,27,0,-15,5,-262,-147,41,9,-18,3,-266,-442,123,16,-20,4,-274,-1378,347,92,-6,44,-261,-2144,543,159,21,133,-233,-2974,761,241,46,197,-182,-1195,379,47,34,184,-198,-73,41,-32,36,190,-194,489,-178,-65,32,177,-198,2424,-632,-262,5,105,-232,3243,-790,-312,-14,17,-260,2184,-463,-170,-24,-10,-265,1375,-277,-139,-21,-39,-272,51,34,28,-20,-28,-268,-366,87,41,-17,-8,-264,-617,141,26,-15,5,-262,-261,104,0,-14,8,-261,-13,36,-37,-12,12,-261,-80,45,-23,-12,9,-262,-18,28,-13,-12,14,-263,10,22,-15,-11,14,-261,31,23,-5,-14,14,-258,-26,20,-10,-12,13,-263,26,8,-23,-9,14,-261,29,11,-13,-12,9,-265,-11,9,-13
tiltl,-12,14,-264,36,19,-7,-12,11,-260,44,13,-15,-12,13,-263,15,11,-19,-11,10,-262,15,13,-6,-10,11,-264,-35,24,-13,-9,13,-264,-125,46,9,-15,2,-274,-1093,271,103,-2,50,-258,-1966,464,138,6,83,-250,-2213,582,184,26,150,-222,-2078,602,224,40,193,-186,-430,155,-37,37,190,-191,-34,-5,-33,34,187,-201,452,-156,-41,38,192,-193,2302,-649,-247,16,129,-221,3662,-964,-364,-32,-9,-266,2972,-606,-176,-26,-56,-274,894,-113,-41,-24,-48,-266,-82,77,38,-18,-39,-262,-32,39,13,-18,-19,-257,-170,57,1,-21,-32,-264,-468,115,60,-20,-15,-263,-588,116,32,-14,13,-256,-110,20,-41,-13,6,-263,-86,29,-17,-16,6,-264,28,2,-28,-15,5,-265,-18,17,-21,-12,8,-262,56,23,-17,-16,2,-262,-21,15,-16,-14,4,-264,15,29,-11,-14,2,-262,7,11,-21
tiltl,-12,5,-264,17,6,-25,-12,3,-263,5,19,-7,-14,5,-263,-19,19,-11,-14,4,-265,-34,27,1,-13,2,-265,-77,31,-10,-13,8,-264,-321,96,-15,-13,9,-269,-687,190,31,-18,9,-276,-1794,462,166,4,81,-238,-3313,842,268,43,190,-181,-2097,617,141,38,189,-195,-259,177,28,37,186,-192,147,-88,-27,35,203,-187,1134,-344,-95,20,140,-216,2606,-679,-258,-7,64,-248,2705,-645,-232,-20,12,-265,2271,-486,-202,-19,-36,-279,898,-131,-52,-18,-40,-271,136,11,-3,-17,-31,-263,-9,31,-3,-18,-26,-259,-143,64,-16,-17,-24,-260,-249,65,7,-15,-12,-260,-269,47,3,-18,-6,-259,-52,20,-13,-14,-5,-261,44,0,-20,-15,-9,-262,-131,46,6,-16,-11,-267,-48,7,-4,-13,-8,-265,-112,46,4,-16,-12,-265,-4,28,-9,-15,-3,-261,23,11,-22,-14,-2,-261,12,13,-13
tiltl,-14,-2,-264,-54,22,-10,-15,-4,-265,-13,16,-3,-13,2,-261,-98,24,-9,-16,1,-263,-116,47,2,-12,3,-263,-67,28,-24,-14,3,-264,-85,34,-4,-16,0,-266,-540,115,45,-16,4,-266,-1423,332,133,-2,60,-256,-1546,353,88,4,69,-253,-2900,775,246,44,197,-186,-1877,506,101,34,178,-194,-385,157,-29,33,190,-193,46,-39,-39,33,196,-192,581,-207,-11,32,177,-198,1898,-596,-162,7,124,-226,2967,-754,-250,-10,38,-266,2072,-458,-141,-19,3,-269,1380,-281,-99,-21,-21,-271,810,-113,-30,-24,-37,-268,-28,45,24,-22,-24,-263,-299,96,8,-22,-13,-261,-221,83,-8,-16,0,-259,-91,36,-40,-15,1,-260,-68,17,-13,-16,2,-264,-221,37,-9,-17,4,-261,59,23,-18,-18,3,-264,10,15,-25,-16,4,-262,34,19,-12,-15,0,-264,-30,22,-25,-15,4,-263,40,20,-25
tiltl,-14,3,-262,15,11,-19,-17,3,-262,17,15,-20,-18,1,-262,15,19,-20,-17,1,-262,0,13,-22,-14,2,-264,17,8,-26,-14,3,-265,-16,26,-17,-17,2,-268,-260,72,15,-14,19,-261,-921,234,38,-8,25,-265,-982,277,90,-8,49,-263,-1884,450,140,4,91,-238,-2519,556,333,31,166,-195,-1882,525,195,22,170,-199,-400,138,-34,33,199,-192,35,-60,-52,33,197,-195,575,-230,21,34,181,-202,2204,-647,-210,5,123,-228,3365,-836,-353,-13,17,-259,2249,-412,-175,-22,-13,-267,1530,-233,-142,-22,-41,-270,-22,89,14,-16,-15,-258,-185,61,6,-15,-15,-260,-262,91,-7,-15,-4,-256,-169,46,-8,-12,3,-262,-191,19,-20,-16,3,-266,-18,25,-14,-15,2,-264,2,14,-29,-15,5,-263,-31,39,-18,-14,2,-263,-23,34,-29,-21,1,-261,-231,147,-61,-10,9,-262,-667,317,-27
tiltl,3,45,-267,-924,413,-72,39,79,-247,-558,206,-124,51,84,-207,19,-68,4,42,78,-243,-129,-99,221,24,69,-258,-69,-238,344,8,65,-261,15,-262,389,-1,75,-253,160,-226,409,-17,71,-255,312,-247,453,-28,39,-256,-110,-264,276,-45,55,-253,101,-366,44,-56,67,-263,519,-401,-101,-21,64,-243,202,64,-78,-8,76,-240,216,-112,-252,-60,18,-258,376,55,-215,-27,13,-263,261,114,-197,-24,19,-261,190,67,-175,-21,25,-263,136,49,-210,-27,2,-260,53,81,-139,-19,17,-265,-67,119,-81,-16,17,-261,116,17,-96,-21,13,-261,4,56,-52,-15,21,-259,59,43,-51