Lable,AccX1,AccY1,AccZ1,GyrX1,GyrY1,GyrZ1,AccX2,AccY2,AccZ2,GyrX2,GyrY2,GyrZ2,AccX3,AccY3,AccZ3,GyrX3,GyrY3,GyrZ3,AccX4,AccY4,AccZ4,GyrX4,GyrY4,GyrZ4,AccX5,AccY5,AccZ5,GyrX5,GyrY5,GyrZ5,AccX6,AccY6,AccZ6,GyrX6,GyrY6,GyrZ6,AccX7,AccY7,AccZ7,GyrX7,GyrY7,GyrZ7,AccX8,AccY8,AccZ8,GyrX8,GyrY8,GyrZ8,AccX9,AccY9,AccZ9,GyrX9,GyrY9,GyrZ9,AccX10,AccY10,AccZ10,GyrX10,GyrY10,GyrZ10,AccX11,AccY11,AccZ11,GyrX11,GyrY11,GyrZ11,AccX12,AccY12,AccZ12,GyrX12,GyrY12,GyrZ12,AccX13,AccY13,AccZ13,GyrX13,GyrY13,GyrZ13,AccX14,AccY14,AccZ14,GyrX14,GyrY14,GyrZ14,AccX15,AccY15,AccZ15,GyrX15,GyrY15,GyrZ15,AccX16,AccY16,AccZ16,GyrX16,GyrY16,GyrZ16,AccX17,AccY17,AccZ17,GyrX17,GyrY17,GyrZ17,AccX18,AccY18,AccZ18,GyrX18,GyrY18,GyrZ18,AccX19,AccY19,AccZ19,GyrX19,GyrY19,GyrZ19,AccX20,AccY20,AccZ20,GyrX20,GyrY20,GyrZ20,AccX21,AccY21,AccZ21,GyrX21,GyrY21,GyrZ21,AccX22,AccY22,AccZ22,GyrX22,GyrY22,GyrZ22,AccX23,AccY23,AccZ23,GyrX23,GyrY23,GyrZ23,AccX24,AccY24,AccZ24,GyrX24,GyrY24,GyrZ24,AccX25,AccY25,AccZ25,GyrX25,GyrY25,GyrZ25,AccX26,AccY26,AccZ26,GyrX26,GyrY26,GyrZ26,AccX27,AccY27,AccZ27,GyrX27,GyrY27,GyrZ27,AccX28,AccY28,AccZ28,GyrX28,GyrY28,GyrZ28,AccX29,AccY29,AccZ29,GyrX29,GyrY29,GyrZ29,AccX30,AccY30,AccZ30,GyrX30,GyrY30,GyrZ30
,,,,,,,,,,,,,,,,,,,,,,,,,,,,,,,,,,,,,,,,,,,,,,,,,,,,,,,,,,,,,,,,,,,,,,,,,,,,,,,,,,,,,,,,,,,,,,,,,,,,,,,,,,,,,,,,,,,,,,,,,,,,,,,,,,,,,,,,,,,,,,,,,,,,,,,,,,,,,,,,,,,,,,,,,,,,,,,,,,,,
tiltr,1,113,-241,28,1,-15,-2,109,-238,42,-25,-24,1,111,-248,3,-96,-79,-9,104,-252,10,-105,-46,-8,104,-245,152,-85,-68,-16,90,-236,83,-40,-63,-3,110,-239,67,29,-78,2,98,-242,56,81,-93,1,98,-241,15,-39,-64,-16,104,-251,-40,-116,14,-23,101,-233,-52,-128,65,-31,98,-250,-12,-257,123,-30,107,-249,54,-235,78,-30,118,-272,-34,-178,68,-36,111,-258,46,49,-12,-27,103,-236,171,65,15,-27,93,-233,117,42,18,-27,99,-236,17,77,-4,-20,102,-251,65,-1,32,-24,89,-250,-30,0,24,-25,102,-251,5,31,-5,-21,100,-245,-5,59,-13,-17,102,-245,0,21,-19,-23,102,-248,24,1,-14,-23,99,-250,-13,13,3,-22,97,-248,22,13,5,-21,103,-247,17,21,-20,-19,101,-238,28,16,-2,-17,101,-242,15,0,-1,-20,100,-243,13,-5,17
tiltr,-21,100,-243,54,-7,7,-21,100,-249,46,13,-2,-22,100,-245,53,-1,-8,-19,98,-247,29,-2,-10,-23,96,-248,38,8,-8,-21,99,-246,37,-4,-5,-23,98,-246,102,-7,14,-22,100,-238,431,-76,20,-22,109,-218,2919,-500,-164,-35,2,-220,5234,-768,-296,-53,-143,-204,5044,-692,-327,-66,-239,-152,3976,-603,-305,-69,-271,-122,1723,-293,-81,-66,-265,-94,-16,1,41,-76,-306,-123,-1792,423,200,-59,-203,-127,-2599,480,204,-66,-216,-190,-4381,932,388,-54,-108,-218,-4761,927,272,-22,35,-237,-3331,791,103,-4,58,-250,-1886,639,95,1,102,-227,-1049,388,-10,6,133,-224,-379,143,-28,5,138,-227,-162,29,-27,2,123,-236,158,-62,-28,3,130,-239,142,-34,-28,-1,118,-244,149,0,-22,2,118,-242,-1,26,-29,2,119,-239,144,-1,-21,-1,115,-239,13,1,-24,-1,115,-242,50,6,-24
tiltr,3,114,-242,0,3,-25,-2,113,-245,-4,19,-16,0,116,-243,74,-4,-23,1,116,-241,113,-14,-26,2,114,-241,152,-21,-24,1,114,-243,525,-104,-52,-6,97,-247,735,-160,-49,-7,97,-235,1859,-405,-140,-23,11,-247,3107,-596,-125,-43,-61,-233,4139,-819,-327,-48,-156,-206,3605,-641,-314,-57,-209,-157,3279,-592,-247,-67,-272,-126,1918,-354,-125,-63,-258,-105,444,-140,-65,-61,-273,-111,-531,121,31,-71,-261,-128,-2085,484,173,-62,-220,-155,-4519,959,353,-46,-127,-206,-4702,937,274,-30,-26,-235,-3600,732,203,-18,35,-251,-1973,504,156,-5,90,-249,-1064,293,10,4,103,-234,-725,196,14,4,107,-242,-490,115,-10,4,120,-230,72,-16,-58,2,115,-245,23,9,-41,1,112,-248,85,-6,-42,4,116,-242,71,-19,-43,1,108,-246,110,-8,-14,-1,104,-246,-11,9,-12,2,109,-249,96,-13,-33
tiltr,2,113,-244,63,-21,-37,2,106,-249,43,5,-31,0,105,-246,55,2,-23,1,109,-244,64,1,-27,0,105,-244,5,8,-12,0,103,-246,10,13,-14,-1,109,-240,183,-6,-11,10,137,-207,2698,-612,-290,-6,33,-240,3613,-747,-172,-35,-65,-232,4508,-849,-271,-55,-165,-189,4417,-825,-309,-63,-251,-158,2571,-441,-120,-63,-255,-120,845,-114,15,-63,-264,-119,-348,118,90,-64,-243,-129,-1565,372,123,-56,-210,-154,-1958,442,163,-58,-193,-188,-1624,371,114,-63,-196,-217,-3091,676,233,-49,-108,-231,-4709,919,216,-18,41,-225,-3031,653,77,1,93,-239,-1214,354,-50,8,109,-229,-1088,303,-47,5,121,-240,-627,207,-37,5,128,-231,-187,77,-28,2,131,-235,84,-7,-47,3,127,-235,135,-27,-33,1,112,-242,153,-39,-30,2,125,-239,189,-36,-40,3,116,-243,28,4,-18,3,116,-241,118,-10,-30
tiltr,2,112,-243,16,10,-39,2,114,-241,38,12,-24,2,119,-242,54,2,-21,0,116,-246,66,5,-32,2,117,-244,39,13,-12,2,119,-237,269,-37,-17,2,117,-234,1444,-308,-137,-1,81,-236,2346,-515,-216,-27,14,-230,4309,-795,-311,-38,-94,-217,4215,-718,-254,-56,-184,-187,3989,-709,-278,-65,-252,-164,1743,-272,-68,-63,-270,-129,971,-130,-51,-57,-263,-107,439,-36,-28,-56,-240,-94,-285,73,0,-67,-289,-129,-2060,469,131,-42,-161,-136,-2616,454,31,-50,-187,-203,-3476,759,188,-46,-130,-243,-2963,617,94,-16,-26,-236,-3732,728,125,-9,43,-228,-3079,686,231,5,134,-234,-990,275,-14,14,130,-224,-471,115,-55,8,126,-230,-4,9,-89,8,129,-238,128,-41,-66,6,123,-243,31,-7,-24,5,122,-239,146,-25,-30,2,106,-245,-1,25,1,3,113,-244,160,-21,-29,5,110,-247,53,-5,-27
tiltr,4,115,-246,101,-4,-28,2,105,-247,-13,22,-20,2,110,-244,51,15,-9,2,113,-245,32,12,-20,3,114,-244,36,3,-3,4,119,-237,378,-80,-36,4,111,-233,1439,-337,-133,11,42,-240,3630,-596,-209,-38,-65,-235,4765,-844,-240,-34,-124,-207,4359,-839,-332,-64,-242,-164,3263,-615,-236,-61,-263,-133,1533,-324,-96,-57,-259,-107,445,-90,-27,-57,-258,-105,-483,117,15,-62,-263,-129,-1797,410,104,-58,-215,-151,-2843,566,143,-41,-142,-185,-2345,455,76,-47,-158,-240,-2841,640,162,-30,-73,-243,-3713,706,153,-10,32,-240,-3033,637,166,3,81,-230,-1584,376,128,8,111,-239,-760,180,47,6,121,-234,-258,27,9,5,121,-248,162,-57,-29,2,119,-245,151,-27,-42,2,102,-251,66,10,-22,5,112,-245,208,-35,-36,4,104,-244,47,4,-15,2,96,-249,60,5,-7,2,102,-247,56,-6,-13
tiltr,2,98,-251,2,34,-10,2,96,-248,28,24,-15,3,102,-248,53,4,-16,3,102,-248,35,7,-11,2,99,-250,22,7,-8,3,104,-248,228,-41,-22,11,116,-224,1228,-289,-118,2,15,-241,3427,-682,-171,-30,-31,-229,4469,-855,-243,-46,-129,-193,4568,-859,-318,-62,-251,-173,3171,-596,-148,-69,-284,-135,1337,-246,-17,-58,-254,-106,329,-82,-18,-58,-264,-110,-498,109,18,-59,-250,-122,-1056,232,41,-60,-242,-157,-3245,655,199,-61,-208,-194,-3538,688,247,-42,-115,-223,-4727,930,267,-13,23,-230,-3531,681,169,-1,85,-237,-2256,586,175,2,110,-227,-883,281,69,4,127,-227,-284,79,-4,4,128,-236,25,0,-35,3,122,-238,114,-10,-40,4,120,-244,185,-40,-35,5,123,-239,129,-19,-32,3,112,-244,93,-2,-18,4,114,-245,144,-7,-33,3,108,-247,-13,29,-7,3,112,-247,30,11,-18
tiltr,2,107,-245,20,22,-21,3,111,-244,85,11,-23,3,113,-242,4,15,-15,3,110,-243,56,5,-15,3,114,-240,197,-26,-35,6,119,-228,1490,-318,-147,-6,49,-252,2074,-447,-145,-28,7,-244,3865,-748,-207,-35,-87,-200,4669,-901,-282,-55,-203,-164,4413,-877,-347,-56,-251,-131,2603,-543,-168,-67,-294,-115,649,-118,-31,-64,-268,-97,-471,73,31,-61,-257,-113,-1386,296,75,-62,-235,-141,-1919,409,75,-54,-195,-166,-3334,673,211,-54,-153,-211,-3470,688,228,-30,-63,-238,-4168,833,211,-13,41,-239,-2754,596,196,5,107,-231,-1762,437,89,8,108,-231,-769,192,29,6,126,-232,-208,42,-6,4,127,-238,32,3,-39,4,122,-239,39,-6,-48,3,121,-241,238,-34,-43,5,111,-242,-79,20,-7,3,112,-243,43,10,-15,3,113,-242,40,9,-17,2,110,-243,32,9,-20,3,110,-242,26,11,-21
tiltr,2,112,-243,58,0,-27,3,114,-246,-35,12,-19,2,109,-246,-12,10,-14,3,115,-244,50,12,-23,2,114,-240,21,11,-1,1,110,-245,76,-10,-3,5,122,-232,847,-166,-69,-5,84,-234,1971,-429,-167,-15,33,-249,3878,-692,-343,-33,-72,-205,5284,-919,-438,-44,-195,-160,4842,-930,-394,-59,-258,-131,2787,-580,-193,-58,-289,-103,752,-157,15,-64,-302,-103,-1399,267,141,-62,-240,-112,-1966,408,135,-60,-231,-167,-3834,843,239,-42,-142,-195,-4978,1025,316,-22,-16,-224,-4308,845,228,-3,64,-232,-2560,576,196,-2,98,-237,-1031,263,107,8,129,-227,-429,61,21,4,123,-238,-114,18,0,8,121,-240,249,-50,-56,4,110,-242,76,-18,-12,2,108,-247,235,-49,-46,3,113,-243,43,6,-27,3,104,-248,47,9,-2,0,106,-247,31,10,-25,0,99,-248,-8,19,-32,3,102,-249,45,-4,-12
tiltr,1,107,-247,47,6,-8,2,106,-248,37,4,-18,1,103,-251,-12,19,-15,2,102,-247,11,22,-14,1,102,-247,25,3,-14,2,108,-247,56,15,-13,1,105,-245,59,3,-16,3,111,-237,544,-107,-54,0,98,-219,2744,-595,-223,-18,11,-243,3944,-827,-217,-44,-103,-217,4865,-958,-303,-47,-193,-183,4276,-818,-251,-68,-262,-149,2187,-486,-93,-67,-264,-114,971,-200,-83,-63,-266,-105,-44,82,4,-64,-254,-105,-917,241,47,-70,-265,-139,-2874,663,230,-65,-218,-176,-3787,771,246,-44,-130,-216,-3899,760,182,-25,-17,-238,-3732,714,186,-10,36,-236,-2502,604,150,1,101,-238,-1088,302,40,9,121,-227,-530,128,-13,1,119,-239,-105,34,-20,0,108,-242,-75,22,-22,2,109,-246,148,-21,-25,2,104,-247,31,1,-17,-3,94,-251,157,-15,-18,-1,103,-246,-16,29,-15,-3,96,-247,21,20,-11
tiltr,2,106,-246,31,5,-31,2,104,-248,6,15,-21,2,106,-250,71,-2,-23,1,104,-246,25,9,-24,1,109,-244,43,6,-15,-1,99,-249,-11,10,-7,1,97,-250,70,-18,-2,2,109,-235,725,-142,-43,2,111,-213,2575,-561,-220,-15,12,-226,4285,-745,-186,-34,-84,-207,5524,-1004,-335,-53,-220,-151,4717,-858,-368,-63,-297,-115,2326,-423,-103,-61,-301,-84,490,-87,0,-55,-259,-70,-695,121,30,-69,-295,-116,-2464,512,166,-63,-247,-151,-4593,907,306,-49,-160,-214,-4628,951,255,-25,-47,-230,-4601,936,229,0,68,-223,-2636,644,188,-1,91,-233,-855,323,52,6,105,-230,-298,38,25,-3,102,-242,73,-41,-39,2,110,-246,299,-68,-63,2,103,-252,151,-29,-42,1,93,-253,98,-11,-21,-1,92,-249,19,20,-9,0,88,-247,61,15,-20,3,94,-249,70,-13,-31,2,92,-252,28,-11,-23
tiltr,2,95,-250,64,-9,-8,1,91,-253,13,2,-18,1,91,-250,35,2,-19,1,86,-249,5,7,-16,0,89,-251,-7,12,-11,0,88,-250,26,9,-10,4,101,-227,621,-158,-75,-4,65,-231,2351,-510,-150,-20,27,-238,3767,-760,-188,-38,-76,-200,5146,-935,-225,-56,-218,-160,4532,-714,-242,-64,-275,-114,2946,-460,-109,-65,-283,-73,1335,-230,-71,-57,-273,-51,465,-65,-58,-60,-280,-60,-1106,243,57,-69,-285,-82,-1525,332,68,-60,-253,-113,-3735,720,214,-59,-211,-171,-4852,907,232,-40,-100,-217,-5052,980,145,-11,41,-221,-3082,654,45,0,81,-239,-1523,386,15,0,95,-232,-630,148,-21,1,120,-236,-345,38,-38,-5,110,-246,56,-26,-29,-4,114,-247,29,2,2,-3,103,-251,67,4,-3,1,106,-247,164,-16,-41,-1,106,-248,28,21,-5,-1,102,-246,30,7,-18,0,103,-247,54,3,-32
tiltr,-1,101,-246,-7,13,-12,1,102,-247,18,14,-5,-4,100,-247,-3,16,-12,-3,101,-250,33,-16,-19,-4,105,-248,40,0,-8,-3,92,-251,-19,30,-4,1,112,-235,503,-99,-60,8,108,-228,1467,-358,-187,-20,29,-233,3250,-648,-203,-32,-8,-215,4809,-955,-322,-53,-168,-197,5001,-811,-226,-76,-278,-147,3613,-575,-172,-70,-283,-90,1447,-281,-39,-66,-282,-77,74,18,1,-66,-273,-87,-1501,288,108,-73,-279,-123,-1953,425,110,-59,-194,-146,-3574,662,141,-58,-173,-205,-4578,976,310,-44,-76,-232,-4507,867,183,-8,59,-223,-2337,557,136,-9,77,-241,-1164,326,47,-1,104,-232,-549,122,-34,-6,107,-243,-135,33,-46,-8,105,-244,-67,10,-45,-5,109,-249,45,-13,-29,-5,107,-249,54,-30,-23,-8,101,-250,75,7,-13,-7,100,-248,52,18,-9,-8,99,-245,101,6,-21,-7,96,-245,-8,19,-12
tiltr,-7,95,-248,-18,23,-16,-7,96,-249,21,24,-18,-6,94,-248,-27,20,-17,-7,98,-248,9,19,-17,-9,101,-246,75,9,-13,-8,95,-249,-40,26,-5,-7,96,-249,24,1,-11,-8,98,-247,127,-9,-24,1,111,-232,980,-241,-119,-24,45,-243,2507,-510,-142,-26,12,-241,3731,-862,-302,-51,-104,-220,4217,-803,-318,-62,-182,-185,4140,-762,-304,-71,-261,-140,2856,-545,-224,-71,-283,-104,1175,-277,-85,-67,-276,-84,412,-94,-64,-65,-257,-90,-1147,254,85,-81,-286,-128,-2870,643,313,-65,-210,-153,-4780,949,325,-53,-114,-212,-4753,1007,256,-25,5,-238,-3220,725,92,-15,57,-239,-1826,494,140,-4,87,-238,-694,184,-1,-6,87,-246,-197,65,-10,-14,83,-254,100,-14,-32,-9,87,-250,-53,28,-26,-9,89,-251,159,2,-29,-7,87,-249,-44,18,-12,-12,75,-255,-35,23,-5,-7,83,-253,49,-8,-13
tiltr,-8,85,-252,98,-1,-25,-8,82,-250,-13,26,-6,-8,81,-254,37,-6,-21,-8,87,-253,68,10,-17,-8,83,-252,9,11,-14,-9,83,-252,-2,21,-14,-8,85,-251,80,0,-5,-4,91,-239,678,-147,-85,-15,58,-244,2034,-453,-138,-28,24,-232,3684,-750,-200,-47,-82,-204,5204,-966,-237,-69,-220,-131,6110,-1011,-431,-75,-307,-111,1877,-275,2,-68,-275,-64,377,-67,17,-69,-281,-79,-1096,247,99,-68,-262,-93,-1235,286,37,-66,-228,-129,-3371,725,179,-64,-192,-177,-4092,858,252,-55,-134,-219,-4646,949,195,-24,7,-223,-3442,738,95,-5,62,-244,-2049,560,111,5,115,-221,-549,188,-30,2,118,-235,-69,40,-82,1,111,-251,164,-33,-48,-1,111,-249,104,-42,-52,-7,94,-250,-81,27,-5,-1,103,-247,151,-28,-31,-3,99,-247,93,5,-27,-4,103,-247,23,-1,-14,-2,104,-247,37,-1,-17
tiltr,-3,92,-250,15,18,-4,-1,97,-252,3,-4,-23,-6,95,-250,17,27,-3,-4,94,-250,33,16,-12,-2,95,-249,7,10,-15,-1,96,-248,114,-17,-2,2,106,-227,916,-216,-99,-5,94,-220,3657,-712,-292,-40,-50,-214,5240,-883,-175,-51,-145,-175,5649,-1157,-475,-76,-321,-134,3504,-620,-265,-66,-296,-100,1057,-256,-52,-60,-278,-86,-659,117,67,-59,-252,-90,-827,180,66,-62,-261,-127,-2332,533,209,-62,-218,-153,-2872,606,231,-56,-175,-191,-3442,666,194,-48,-119,-235,-3512,731,157,-29,-17,-241,-3387,739,172,-9,59,-240,-2179,543,91,1,96,-241,-988,296,44,2,104,-235,-356,94,-24,1,113,-237,172,-62,-56,-1,108,-244,93,-68,-23,-8,92,-252,36,-37,-10,-2,101,-250,154,-43,-36,1,100,-251,38,-20,-15,-4,101,-252,62,-5,-25,-7,96,-250,70,7,-20,-3,103,-247,71,8,-32
tiltr,-6,102,-247,42,17,-19,-5,97,-250,-31,6,-21,-4,97,-250,38,10,-17,-3,96,-249,17,7,-24,-4,98,-250,39,10,-14,-6,94,-247,0,12,-18,-4,97,-248,111,-18,-15,-3,102,-240,509,-125,-69,-4,88,-228,2329,-515,-244,-52,33,-228,4087,-741,-140,-47,-89,-231,4311,-810,-158,-59,-177,-190,4031,-816,-227,-70,-257,-156,2266,-432,-152,-67,-254,-98,1814,-368,-166,-63,-261,-94,199,-24,-33,-64,-259,-92,-620,142,18,-72,-282,-124,-2002,473,146,-63,-212,-149,-2758,590,171,-58,-169,-189,-3725,777,236,-50,-107,-228,-3332,660,163,-27,-19,-244,-3388,773,205,-24,21,-251,-2616,585,239,-13,74,-228,-1162,331,125,-3,116,-234,-402,161,-8,0,114,-236,-51,63,-38,2,116,-243,136,-20,-59,-1,103,-245,31,3,-16,0,113,-242,233,-43,-46,-3,100,-247,-14,16,-16,-3,101,-247,179,-19,-28
tiltr,-5,100,-247,49,-9,-26,-4,100,-248,58,-7,-17,-5,95,-249,85,0,-16,-4,99,-247,6,7,-25,-6,96,-247,-8,10,-14,-5,93,-251,15,-7,-18,-4,98,-249,14,7,-6,-6,94,-249,139,-14,-12,-3,101,-241,647,-137,-68,-8,72,-233,2873,-611,-229,-32,-10,-238,4114,-728,-215,-45,-115,-213,4612,-924,-285,-65,-232,-159,4037,-704,-280,-64,-250,-114,2613,-567,-170,-69,-292,-95,482,-166,20,-63,-271,-85,-299,3,28,-70,-272,-114,-1537,325,83,-72,-253,-134,-2938,614,224,-65,-197,-181,-3215,678,211,-49,-108,-203,-3094,666,143,-34,-67,-235,-3034,577,153,-31,-1,-248,-3133,733,171,-10,75,-238,-1899,430,109,-4,100,-238,-720,186,12,1,117,-240,1,7,-44,-2,109,-246,82,-11,-34,-3,111,-247,105,-16,-25,-7,104,-244,95,-14,-23,-8,95,-244,35,-1,-10,-6,105,-246,68,-17,-17
tiltr,-8,98,-250,17,4,-7,-8,92,-252,50,-3,-10,-6,97,-250,34,19,-8,-8,97,-247,43,14,-16,-6,99,-247,19,13,-10,-9,93,-248,39,1,0,-2,107,-235,464,-111,-76,-17,69,-237,2379,-455,-145,-23,32,-223,3859,-784,-253,-48,-90,-210,4415,-840,-180,-69,-194,-169,4523,-839,-259,-76,-272,-144,2702,-477,-110,-77,-275,-102,1168,-242,-3,-69,-284,-95,-520,127,61,-73,-263,-109,-1459,308,79,-70,-245,-142,-2987,636,204,-71,-205,-192,-3699,792,256,-61,-131,-226,-3964,843,241,-44,-35,-242,-3735,816,196,-16,53,-237,-2534,633,151,1,111,-228,-910,321,-23,4,107,-227,-388,165,-7,-1,118,-238,87,-11,-60,-4,119,-245,84,-25,-46,-1,118,-246,214,-44,-39,-5,107,-247,57,4,-10,-8,104,-244,192,-38,-27,-6,104,-245,82,2,-15,-7,97,-246,42,16,-3,-7,103,-247,8,-6,-15
tiltr,-8,99,-248,-8,12,-2,-9,92,-251,-7,11,-4,-7,97,-250,-6,16,-21,-9,98,-250,12,22,-12,-7,99,-248,55,11,-5,-5,101,-245,485,-87,-53,-10,79,-245,1024,-201,-53,-14,73,-232,2628,-596,-222,-34,-27,-243,3272,-689,-112,-47,-83,-218,3666,-813,-203,-61,-153,-184,3992,-860,-248,-73,-248,-134,3343,-640,-169,-80,-283,-104,893,-207,-26,-75,-267,-104,-549,92,-21,-73,-255,-121,-1045,257,24,-76,-244,-151,-3343,738,241,-70,-194,-189,-4158,887,275,-54,-90,-232,-2923,643,73,-36,-49,-234,-3406,808,184,-10,60,-234,-2857,661,126,-7,98,-228,-697,220,28,-5,116,-232,-304,98,-20,-6,113,-241,5,-4,-46,-3,114,-241,88,-26,-35,-10,106,-247,28,16,-10,-7,109,-246,-3,11,-17,-6,107,-248,151,-8,-19,-6,103,-247,24,17,-18,-6,109,-243,38,24,-17,-5,107,-243,23,7,-23
tiltr,0,104,-248,-44,12,-23,-8,101,-247,102,1,-32,-7,106,-240,30,6,-31,-8,105,-245,9,15,-10,-6,101,-249,64,-15,-13,-8,100,-248,190,-25,-17,-4,112,-234,1161,-243,-117,-15,71,-236,3376,-610,-282,-34,-36,-237,4033,-666,-213,-44,-126,-211,4446,-826,-325,-60,-215,-154,4169,-724,-340,-64,-263,-94,2863,-546,-173,-60,-265,-72,964,-207,-21,-64,-280,-64,-229,64,23,-61,-271,-74,-799,178,70,-66,-262,-108,-3235,719,281,-70,-242,-157,-4599,943,355,-53,-136,-198,-4804,950,217,-27,-17,-224,-3819,756,164,-13,51,-245,-2128,502,183,2,98,-234,-843,167,30,-2,96,-244,-471,70,10,-3,107,-237,-80,-8,-26,-8,96,-249,98,-29,-27,-9,97,-250,88,-23,-36,-10,99,-250,99,8,-18,-13,82,-252,39,24,-16,-9,97,-248,117,14,-25,-9,86,-250,21,17,-14,-8,88,-247,-6,20,-7
tiltr,-10,85,-252,39,3,-21,-10,88,-253,-11,18,-27,-7,89,-253,-10,16,-21,-9,95,-250,15,8,-20,-12,98,-249,12,16,-11,-9,92,-250,14,6,-13,-10,93,-247,199,-20,-18,-2,108,-229,1462,-350,-138,-22,36,-244,3211,-673,-216,-41,-35,-221,3969,-779,-209,-62,-148,-209,4492,-833,-280,-68,-237,-158,4095,-750,-285,-71,-266,-106,2052,-447,-144,-70,-280,-77,525,-171,-71,-66,-262,-79,-513,108,-4,-71,-261,-104,-1556,366,95,-76,-253,-138,-3262,755,257,-66,-202,-181,-4458,941,357,-52,-109,-227,-4522,935,296,-26,8,-226,-3188,693,186,-8,67,-242,-1724,426,86,-4,89,-235,-812,220,47,-4,102,-243,-359,105,-8,-5,115,-240,65,14,-31,-6,113,-241,41,16,-35,-7,103,-250,53,0,-32,-4,103,-245,80,12,-18,-7,104,-246,68,-6,-19,-7,101,-247,40,6,-9,-8,95,-248,35,6,-18
tiltr,-8,96,-248,19,15,-18,-7,99,-242,68,2,-19,-7,102,-247,37,0,-30,-7,101,-249,7,13,-9,-5,90,-251,-48,17,-15,-6,91,-249,-17,20,-14,-6,100,-247,-8,13,-10,-5,104,-239,275,-47,-20,0,124,-222,2271,-512,-252,-27,25,-241,3424,-674,-225,-43,-63,-227,4577,-904,-314,-62,-186,-185,4859,-858,-343,-70,-260,-134,3493,-572,-223,-69,-279,-97,1413,-254,-79,-69,-279,-83,-380,107,19,-65,-263,-94,-1173,258,60,-63,-238,-126,-2744,586,168,-69,-235,-171,-4367,950,357,-56,-140,-210,-4413,866,195,-25,-14,-227,-3866,810,135,-6,60,-234,-2557,634,128,1,107,-220,-766,271,-33,1,118,-236,-238,83,-59,-7,111,-247,-8,4,-28,-4,111,-245,113,-24,-32,0,113,-246,75,-10,-12,-7,94,-248,-20,13,12,-1,102,-248,49,-1,-13,-5,102,-245,62,-8,5,-3,102,-247,7,-7,-6
tiltr,-2,103,-248,20,3,-26,-1,103,-247,41,-2,-22,-3,104,-245,-2,19,-13,0,104,-245,45,-12,-19,-7,103,-249,6,11,-10,-4,106,-242,53,-6,-15,-3,107,-244,188,-48,-20,0,122,-230,2105,-477,-220,-19,35,-244,2760,-555,-236,-37,-41,-232,4259,-813,-317,-50,-132,-162,5944,-1082,-479,-64,-272,-127,4399,-790,-283,-72,-293,-87,1561,-305,-21,-69,-281,-63,-55,25,36,-66,-272,-75,-1101,242,64,-72,-276,-104,-2275,550,174,-69,-235,-141,-3772,853,273,-52,-154,-187,-4306,909,286,-41,-74,-229,-4163,841,232,-22,8,-226,-3317,637,233,1,96,-231,-1819,394,137,2,119,-236,-674,142,37,-1,124,-236,-141,34,-27,-2,114,-246,127,-12,-32,0,118,-241,179,-35,-42,-8,111,-244,169,-32,-33,-6,104,-247,185,-23,-25,-10,104,-247,216,-20,-33,-8,100,-250,51,7,-22,-3,105,-248,156,-11,-35
tiltr,-6,106,-245,76,1,-36,-4,109,-245,43,18,-19,-8,98,-250,-50,33,-9,-7,98,-249,-18,20,-20,-7,99,-245,57,5,-20,-5,102,-246,-16,3,-10,-9,99,-250,6,7,0,-7,100,-246,220,-27,-21,-8,100,-235,1850,-421,-205,-22,36,-243,2757,-574,-261,-30,-22,-237,3828,-746,-303,-48,-135,-205,5105,-942,-425,-63,-246,-164,3779,-641,-292,-71,-276,-122,1913,-341,-150,-61,-256,-77,1154,-227,-134,-62,-266,-61,307,-43,-79,-61,-278,-70,-726,174,28,-68,-270,-94,-1760,422,78,-60,-241,-125,-3169,713,182,-61,-215,-177,-4807,1008,304,-41,-106,-214,-5130,1026,247,0,59,-216,-2650,546,112,-5,38,-253,-1538,357,131,4,96,-240,-373,34,-2,-1,89,-253,-459,96,-6,-2,91,-254,78,16,-40,-3,93,-250,-4,23,-20,-6,88,-248,-5,10,-24,1,93,-250,43,-1,-24,0,92,-251,-25,7,-10
tiltr,-2,90,-252,114,-17,-16,-5,81,-253,25,9,-7,-6,88,-247,53,5,-21,-7,81,-253,-38,1,-17,-5,87,-254,51,7,-20,-6,83,-253,1,8,-14,-5,85,-253,18,13,-14,-6,86,-244,402,-78,-31,3,98,-224,2151,-518,-202,-25,15,-240,3539,-735,-140,-39,-72,-222,4063,-821,-159,-64,-171,-202,3675,-691,-207,-61,-233,-151,3226,-561,-185,-68,-265,-107,1934,-401,-156,-67,-282,-88,632,-165,-80,-65,-272,-88,-855,162,10,-75,-264,-112,-2191,490,100,-65,-225,-146,-4038,843,204,-56,-155,-194,-4792,1001,242,-26,-36,-229,-3972,767,133,-10,36,-233,-2510,537,110,-7,80,-243,-848,224,36,-8,81,-248,-402,135,4,-1,98,-250,-80,45,-48,-2,94,-249,-44,32,-25,-4,96,-249,42,17,-24,-6,89,-248,-2,23,-17,-3,91,-250,-28,19,-8,-2,87,-251,33,-2,-15,-5,83,-254,58,8,-6
tiltr,-5,85,-248,68,1,-10,-5,86,-252,-27,8,-12,-5,85,-254,51,1,-11,-4,84,-251,9,13,-15,-5,87,-252,-48,31,-7,-8,82,-252,-16,22,4,-5,88,-252,88,-9,-14,-6,85,-249,275,-44,-10,-5,81,-248,835,-172,-74,-3,80,-238,2259,-501,-237,-26,-1,-236,3037,-605,-185,-37,-79,-225,3573,-765,-227,-58,-162,-183,4488,-826,-325,-57,-228,-153,3356,-543,-213,-70,-278,-111,1605,-291,-102,-67,-273,-91,-139,50,3,-72,-283,-109,-1620,374,68,-61,-231,-126,-2806,564,144,-60,-210,-186,-4019,855,234,-46,-113,-219,-4434,884,232,-12,10,-228,-3733,763,248,-14,55,-245,-1438,314,122,-5,80,-254,-869,212,15,-6,95,-245,-409,154,-12,3,111,-242,-112,85,-47,4,116,-242,18,22,-30,0,104,-241,18,-17,-19,0,103,-245,77,-11,-34,-1,95,-245,-5,13,-6,-2,100,-246,76,-24,-15
tiltr,-3,101,-249,31,-4,-18,-3,98,-250,22,8,-15,0,101,-251,36,-3,-31,0,104,-245,117,-10,-13,-2,96,-249,-71,28,-15,-3,97,-250,77,-6,-1,-1,99,-249,-17,12,-22,-1,97,-248,32,10,-12,0,117,-229,1460,-320,-174,-14,44,-244,2245,-471,-168,-33,-9,-252,2770,-549,-161,-38,-68,-248,3105,-566,-156,-46,-128,-206,4163,-784,-261,-60,-217,-148,3624,-595,-238,-67,-264,-108,2223,-448,-158,-64,-274,-74,789,-153,-87,-63,-285,-85,-732,148,36,-69,-281,-110,-2204,439,110,-58,-213,-134,-2933,588,178,-63,-215,-207,-3411,818,251,-39,-116,-205,-4132,860,219,-20,-22,-237,-4076,792,298,-11,67,-225,-1904,430,189,-3,91,-242,-715,169,72,1,93,-247,-502,109,9,4,114,-248,-179,38,-20,1,113,-246,83,1,-48,2,112,-243,15,-2,-40,2,115,-247,89,-40,-38,-5,97,-249,0,18,7
tiltr,-2,103,-247,84,0,-22,0,104,-247,36,12,-22,-1,100,-248,12,24,-17,0,103,-248,57,4,-29,1,105,-248,47,5,-12,-2,106,-245,28,11,-13,0,103,-248,-9,21,-17,0,103,-245,88,-11,-18,11,146,-217,2071,-518,-245,-16,36,-241,3313,-664,-182,-37,-46,-233,4593,-849,-237,-56,-157,-199,4625,-853,-343,-63,-248,-148,3595,-591,-207,-64,-260,-89,2574,-489,-154,-65,-281,-56,1326,-270,-124,-60,-279,-42,174,-21,-37,-61,-272,-55,-1347,265,25,-68,-283,-86,-1949,426,93,-76,-281,-129,-4852,1004,299,-51,-186,-177,-6431,1281,364,-23,-1,-218,-4897,1021,185,6,92,-207,-2243,638,133,8,107,-233,-642,274,5,12,124,-225,0,37,-53,6,109,-241,-53,-6,-39,5,118,-242,197,-54,-63,6,105,-244,38,-22,-17,3,108,-244,139,-44,-13,2,104,-249,10,0,2,1,94,-252,67,-12,-5
tiltr,3,106,-247,68,-1,-15,3,100,-247,23,9,-19,5,107,-245,35,-1,-15,3,105,-246,6,7,-23,2,101,-249,-16,18,-18,4,103,-249,66,11,-21,3,103,-245,50,2,-18,0,105,-243,269,-42,-32,8,121,-227,1948,-476,-232,-11,26,-239,3019,-627,-190,-38,-54,-243,3312,-736,-137,-46,-111,-202,4105,-868,-250,-60,-209,-171,4090,-724,-245,-63,-245,-111,2890,-535,-191,-67,-274,-77,1149,-182,-66,-64,-280,-74,-80,33,29,-61,-263,-81,-1109,238,51,-64,-270,-123,-2531,607,248,-70,-236,-148,-4242,887,264,-50,-140,-209,-5153,1053,261,-37,-26,-233,-4657,1013,235,10,132,-205,-1923,468,-2,7,108,-224,-688,255,26,6,121,-238,-143,39,-31,1,118,-247,-73,15,-31,2,114,-248,22,27,9,-3,108,-238,132,12,-42,1,110,-236,-42,9,-10,2,114,-246,21,-3,-26,3,111,-248,2,6,-25
