#,AccX,AccY,AccZ,GyrX,GyrY,GyrZ
0,13,57,-258,11,9,-12
1,12,57,-259,6,8,-11
2,13,58,-259,8,6,-11
3,13,57,-258,10,9,-13
4,13,57,-258,8,9,-12
5,13,57,-259,6,8,-11
6,13,57,-259,8,8,-13
7,13,57,-259,2,8,-12
8,13,58,-258,6,8,-10
9,13,58,-258,6,10,-10
10,13,58,-259,6,9,-13
11,13,58,-258,7,9,-12
12,13,58,-258,6,8,-11
13,12,58,-258,3,10,-11
14,13,58,-258,4,8,-11
15,13,58,-259,5,8,-10
16,13,58,-258,1,11,-12
17,13,58,-258,2,10,-12
18,13,58,-258,-6,7,-11
19,13,59,-258,2,9,-13
20,13,59,-258,1,11,-13
21,13,60,-258,2,7,-12
22,13,60,-258,4,9,-13
23,13,60,-258,5,10,-13
24,13,60,-258,6,7,-13
25,13,61,-258,5,8,-12
26,12,61,-258,9,11,-13
27,13,61,-258,7,8,-12
28,13,61,-258,7,8,-12
29,12,61,-258,5,11,-11
30,12,60,-259,3,9,-12
31,13,61,-258,3,3,-10
32,12,62,-258,2,11,-8
33,12,62,-258,6,10,-5
34,13,61,-258,-5,5,0
35,11,62,-258,2,7,-6
36,12,62,-258,4,9,-6
37,12,62,-257,3,7,-4
38,12,62,-258,5,8,-7
39,12,62,-257,7,9,-5
40,12,63,-257,4,6,-8
41,12,63,-257,9,10,-7
42,12,63,-257,14,14,-4
43,12,64,-256,7,14,-8
44,12,64,-257,0,-7,-30
45,8,67,-251,89,-29,-48
46,10,62,-260,-7,25,-40
47,11,65,-258,-7,34,-36
48,11,67,-259,-17,62,-33
49,13,66,-256,60,80,-42
50,15,67,-253,504,42,-58
51,16,49,-251,674,24,-114
52,18,33,-250,881,-39,-142
53,16,10,-251,703,-25,-121
54,16,-2,-251,273,38,-89
55,18,3,-248,-37,66,-79
56,20,0,-252,-390,92,-63
57,23,20,-245,-447,84,-60
58,24,27,-246,-428,102,-30
59,26,33,-244,-475,105,-22
60,31,50,-237,-246,66,-22
61,32,55,-232,397,-3,-29
62,32,35,-239,663,-36,-12
63,30,16,-239,817,-66,-8
64,28,-4,-239,715,-64,9
65,26,-23,-241,308,-25,16
66,28,-24,-244,-222,27,7
67,27,-17,-243,-843,78,4
68,32,17,-228,-740,69,13
69,31,24,-232,-335,36,1
70,33,39,-227,228,-43,-15
71,31,16,-235,340,-55,0
72,29,14,-245,160,-70,-7
73,35,11,-270,52,-20,-58
74,33,8,-277,12,118,-107
75,32,10,-266,9,253,-142
76,31,9,-253,-63,341,-136
77,35,10,-235,-135,352,-116
78,37,14,-213,-168,235,-99
79,36,11,-205,-110,24,-97
80,34,14,-222,-37,-194,-77
81,32,21,-243,-57,-245,-66
82,37,26,-270,-81,-224,-110
83,33,46,-290,-83,-73,-115
84,30,49,-293,-142,126,-89
85,27,38,-283,-235,302,-76
86,29,37,-262,-255,387,-75
87,31,37,-236,-309,397,-75
88,30,38,-208,-206,264,-76
89,29,32,-194,22,3,-68
90,25,31,-209,124,-330,-60
91,24,44,-265,86,-404,-96
92,23,59,-277,37,-265,-67
93,22,59,-291,-31,-35,-55
94,19,61,-287,-43,156,-29
95,18,52,-276,-98,311,1
96,17,45,-251,-92,397,12
97,21,43,-227,-146,337,-28
98,21,45,-197,-14,125,-21
99,20,38,-196,152,-229,-35
100,22,45,-249,10,-419,-40
101,19,61,-276,85,-291,-24
102,20,68,-286,38,-82,-57
103,19,66,-290,-69,96,-16
104,18,60,-282,-118,251,-1
105,16,53,-258,-87,371,36
106,20,46,-230,-128,344,3
107,22,49,-197,-33,130,1
108,14,42,-189,89,-230,-4
109,16,45,-238,143,-541,-28
110,8,64,-273,145,-367,9
111,16,73,-281,54,-136,13
112,6,59,-285,-116,170,19
113,16,64,-269,-137,324,13
114,13,60,-250,-6,374,80
115,16,50,-220,-153,358,62
116,14,47,-194,-45,148,37
117,14,43,-183,144,-201,4
118,17,45,-227,140,-535,-28
119,7,52,-267,141,-389,12
120,15,64,-276,-21,-83,10
121,12,56,-272,-29,78,45
122,11,51,-256,-92,182,48
123,11,42,-239,-34,246,58
124,12,43,-217,-85,206,31
125,12,38,-199,6,49,42
126,14,35,-191,122,-246,-21
127,10,49,-247,4,-432,-46
128,15,61,-268,196,-228,58
129,14,54,-256,44,-127,56
130,12,50,-247,40,-108,66
131,13,48,-244,14,-93,85
132,11,49,-244,33,-124,115
133,10,52,-251,8,-146,114
134,9,51,-249,32,-160,112
135,9,53,-253,22,-159,86
136,9,63,-251,24,-41,122
137,10,54,-249,-9,-119,70
138,3,61,-248,-119,-122,73
139,6,65,-250,-115,-80,57
140,7,83,-243,-23,-51,63
141,6,66,-251,-49,-62,56
142,4,74,-249,-37,-54,56
143,5,75,-249,-54,-41,46
144,6,77,-249,-25,-41,41
145,5,76,-250,-25,-40,40
146,5,78,-250,-22,-34,37
147,5,80,-250,-12,-32,31
148,5,80,-250,-14,-27,27
149,5,80,-251,-4,-25,26
150,5,81,-251,-9,-22,21
151,5,81,-251,-2,-18,18
152,5,81,-251,0,-15,16
153,5,81,-251,-3,-14,13
154,5,82,-251,0,-10,10
155,5,82,-252,-3,-5,6
156,5,82,-252,-5,-6,0
157,5,84,-251,-7,-1,-7
158,5,85,-251,-11,-1,-6
159,5,84,-252,0,-1,-6
160,5,85,-251,-3,0,-8
161,4,86,-251,-4,5,-5
162,5,86,-251,7,2,-6
163,5,86,-251,-4,3,-8
164,5,86,-251,8,4,-8
165,5,86,-251,6,3,-6
166,5,86,-251,19,0,-7
167,5,85,-252,17,3,-5
168,5,87,-251,15,1,-11
169,4,85,-252,2,11,-7
170,5,85,-252,4,8,-10
171,5,86,-252,6,6,-11
172,5,86,-252,3,8,-12
173,5,87,-251,0,12,-11
174,5,86,-252,7,9,-12
175,5,87,-251,1,10,-13
176,5,86,-252,6,11,-11
177,5,87,-252,7,11,-12
178,5,88,-251,13,10,-12
179,5,87,-252,18,5,-11
180,5,87,-252,22,7,-11
181,5,87,-252,23,9,-11
182,5,87,-252,16,7,-11
183,5,86,-252,25,8,-10
184,5,86,-252,28,10,-7
185,6,85,-252,39,5,-7
186,5,85,-252,31,7,-8
187,5,84,-252,41,8,-6
188,5,84,-252,33,5,-6
189,5,84,-252,32,6,-7
190,5,83,-253,34,8,-6
191,5,82,-253,27,6,-7
192,5,83,-253,29,8,-8
193,5,82,-253,30,7,-10
194,5,81,-253,23,6,-12
195,5,81,-253,23,8,-11
196,5,81,-253,23,11,-10
197,5,81,-253,18,7,-13
198,5,80,-253,20,9,-13
199,5,80,-253,17,13,-10
200,5,80,-253,11,8,-13
201,5,80,-253,13,11,-12
202,4,80,-253,19,10,-11
203,5,79,-253,22,7,-11
204,5,79,-253,23,8,-13
205,5,79,-253,25,9,-11
206,5,78,-254,22,8,-10
207,5,77,-254,17,10,-10
208,5,78,-254,23,13,-6
209,5,76,-254,26,8,-10
210,5,77,-254,22,6,-10
211,5,77,-254,22,10,-10
212,5,76,-255,12,12,-11
213,5,76,-254,15,11,-14
214,5,75,-254,0,19,-20
215,5,77,-254,-17,22,-29
216,5,78,-254,-19,16,-27
217,5,78,-254,-4,20,-26
218,5,78,-254,-17,22,-29
219,5,79,-254,-15,17,-27
220,5,79,-254,-16,18,-27
221,5,80,-254,-15,20,-26
222,5,80,-254,-15,16,-26
223,5,81,-253,-17,14,-26
224,5,81,-253,-21,13,-25
225,5,82,-253,-12,15,-25
226,6,83,-253,-2,12,-23
227,5,83,-253,0,11,-20
228,6,83,-253,-5,11,-19
229,6,84,-253,2,14,-19
230,5,83,-253,1,14,-17
231,6,84,-253,4,10,-16
232,6,83,-253,5,7,-13
233,5,83,-253,11,10,-13
234,6,84,-253,9,8,-14
235,5,83,-253,5,6,-15
236,5,83,-253,6,9,-13
237,5,84,-253,5,7,-14
238,5,84,-253,-4,5,-14
239,5,84,-253,2,7,-14
240,5,84,-253,5,9,-13
241,5,85,-252,5,7,-13
242,4,85,-253,9,8,-11
243,5,86,-252,14,10,-12
244,5,84,-252,11,7,-12
245,4,85,-252,16,7,-3
246,5,86,-252,38,5,7
247,5,83,-253,21,8,1
248,5,84,-253,25,6,-3
249,5,84,-252,23,7,-1
250,5,84,-253,28,8,0
251,5,83,-253,25,4,-3
252,5,83,-253,19,7,-4
253,5,83,-253,22,7,-4
254,5,83,-253,19,8,-7
255,5,82,-253,10,13,-15
256,5,81,-254,-9,15,-30
257,5,84,-253,7,10,-23
258,5,83,-253,7,10,-18
259,5,83,-253,2,16,-25
260,5,83,-253,5,12,-20
261,5,84,-253,5,12,-17
262,5,83,-253,5,14,-20
263,5,83,-253,4,15,-21
264,5,84,-253,4,14,-17
265,5,85,-252,5,17,-16
266,5,83,-253,-3,16,-19
267,5,85,-253,7,11,-21
268,5,86,-252,22,17,-15
269,5,84,-253,2,14,-16
270,5,85,-253,9,11,-18
271,5,85,-253,0,13,-19
272,5,85,-253,15,13,-17
273,6,85,-252,-10,17,-17
274,6,85,-253,-7,16,-20
275,6,85,-252,-5,12,-20
276,6,86,-252,4,14,-16
277,6,86,-252,0,18,-16
278,7,86,-252,2,14,-18
279,7,87,-252,-2,11,-17
280,6,87,-252,-1,15,-15
281,6,87,-252,0,11,-16
282,7,87,-252,-6,9,-17
283,7,88,-252,-3,13,-17
284,7,88,-252,-4,16,-15
285,7,88,-252,2,7,-18
286,6,89,-252,-1,12,-14
287,7,89,-252,4,13,-14
288,6,90,-252,4,12,-16
289,6,88,-252,4,12,-15
290,6,89,-252,5,13,-12
291,6,89,-252,12,9,-14
292,6,89,-252,8,12,-13
293,6,88,-252,12,12,-12
294,7,89,-252,9,10,-14
295,6,88,-252,16,11,-13
296,6,89,-252,14,12,-12
297,6,88,-252,13,11,-12
298,6,89,-252,15,10,-11
299,6,88,-252,14,12,-11
300,6,88,-252,14,11,-12
301,6,88,-252,17,8,-12
302,6,87,-252,13,13,-8
303,7,86,-252,31,29,0
304,8,86,-252,2,0,-10
305,6,87,-252,9,-1,-10
306,7,87,-251,17,7,2
307,7,86,-252,14,7,3
308,7,86,-252,16,3,10
309,7,87,-252,27,1,18
310,7,87,-252,34,6,14
311,8,84,-253,17,8,-1
312,7,87,-252,17,6,0
313,7,85,-253,28,1,2
314,7,85,-252,22,6,0
315,7,85,-253,29,8,0
316,8,84,-253,15,6,-5
317,7,85,-252,24,8,-4
318,7,84,-253,19,10,-3
319,8,83,-253,14,5,-9
320,7,85,-253,15,6,-10
321,7,82,-253,12,16,-3
322,8,84,-252,17,5,-9
323,8,84,-253,18,6,-9
324,7,84,-253,19,7,-8
325,8,82,-253,12,10,-5
326,8,84,-252,13,5,-10
327,7,86,-253,19,10,3
328,8,83,-253,27,6,0
329,8,84,-252,15,4,-6
330,7,83,-253,18,7,-3
331,8,83,-253,23,9,0
332,8,82,-253,10,4,-6
333,7,82,-253,16,5,-3
334,8,82,-253,17,6,-5
335,8,82,-253,15,4,-6
336,8,81,-253,14,5,-7
337,7,82,-253,14,6,-6
338,8,81,-253,12,3,-8
339,7,81,-253,14,7,-7
340,7,81,-253,10,10,-7
341,8,80,-253,10,5,-7
342,7,81,-253,14,7,-8
343,7,81,-253,12,8,-8
344,7,80,-253,10,6,-9
345,7,80,-253,14,8,-9
346,7,81,-253,14,8,-10
347,7,80,-253,14,7,-10
348,7,81,-253,14,9,-11
349,7,80,-253,12,8,-10
350,7,81,-253,16,7,-10
351,7,81,-253,10,7,-11
352,7,80,-253,17,9,-10
353,7,80,-253,24,8,-7
354,7,79,-253,18,7,-10
355,7,80,-253,20,11,-11
356,7,78,-254,25,11,-11
357,7,79,-254,21,9,-11
358,7,78,-254,23,12,-11
359,7,78,-254,23,12,-10
360,7,77,-254,21,9,-11
361,7,77,-254,20,11,-11
362,7,77,-254,24,13,-10
363,7,76,-254,19,9,-11
364,7,76,-255,20,11,-12
365,7,76,-254,23,13,-10
366,7,75,-254,18,10,-12
367,7,76,-254,20,11,-12
368,7,75,-254,17,12,-11
369,8,75,-254,15,9,-12
370,7,75,-254,16,10,-12
371,7,75,-255,17,10,-12
372,8,75,-255,12,9,-12
373,7,75,-254,16,8,-13
374,7,75,-255,16,10,-12
375,7,75,-255,16,10,-12
376,7,75,-255,14,9,-13
377,7,75,-255,15,11,-13
378,8,74,-255,17,13,-11
379,8,74,-255,18,10,-13
380,8,74,-255,15,11,-12
381,7,74,-255,22,13,-11
382,8,73,-256,16,10,-12
383,8,73,-256,22,13,-12
384,8,73,-256,20,12,-13
385,8,72,-256,18,10,-14
386,8,72,-256,23,13,-14
387,8,72,-256,18,11,-13
388,8,72,-256,16,11,-14
389,8,71,-256,19,11,-14
390,8,72,-256,16,12,-13
391,8,71,-256,15,10,-13
392,8,71,-256,16,12,-14
393,8,71,-256,19,14,-12
394,8,70,-256,18,15,-10
395,9,71,-256,22,18,-13
396,8,70,-256,5,23,-18
397,9,68,-257,-30,19,-34
398,9,72,-256,3,13,-22
399,8,70,-257,4,17,-17
400,9,71,-256,1,18,-19
401,8,72,-256,0,18,-18
402,10,70,-256,-5,15,-14
403,9,71,-256,7,15,-10
404,10,70,-256,0,9,-13
405,10,73,-256,18,8,-15
406,10,71,-256,-8,8,-15
407,10,72,-255,6,7,-12
408,10,72,-256,5,10,-15
409,10,73,-256,2,8,-14
410,10,72,-256,2,11,-9
411,10,72,-256,11,10,-8
412,10,72,-256,7,9,-10
413,11,72,-256,10,6,-11
414,10,72,-256,6,8,-8
415,10,74,-256,21,9,-5
416,10,71,-256,19,7,-6
417,11,72,-256,17,6,-8
418,10,71,-256,11,9,-6
419,11,72,-256,19,6,-7
420,10,71,-256,13,5,-8
421,10,71,-256,13,6,-7
422,11,71,-256,17,6,-7
423,10,71,-256,13,6,-8
424,10,71,-256,12,9,-8
425,10,70,-255,5,15,-6
426,10,71,-256,21,7,-10
427,10,70,-256,10,16,-20
428,10,71,-256,-7,17,-31
429,10,73,-255,13,18,-31
430,10,71,-256,8,19,-30
431,10,71,-256,5,19,-35
432,10,72,-256,-1,15,-36
433,9,73,-256,3,16,-30
434,10,72,-256,-1,16,-28
435,10,72,-255,1,14,-27
436,9,73,-256,-5,13,-28
437,9,73,-256,-4,13,-26
438,9,73,-255,4,13,-24
439,10,74,-255,-2,14,-25
440,9,73,-255,3,15,-23
441,10,74,-255,4,10,-22
442,9,75,-255,0,11,-23
443,9,74,-255,1,17,-18
444,10,75,-255,0,9,-20
445,9,75,-255,3,13,-18
446,9,75,-255,-5,20,-15
447,11,76,-255,5,9,-20
448,9,74,-255,-2,17,-14
449,9,76,-255,6,13,-14
450,10,76,-255,8,9,-15
451,10,76,-255,6,10,-14
452,9,75,-255,-3,11,-5
453,10,76,-255,26,6,2
454,10,76,-255,17,5,-2
455,9,76,-255,12,10,-4
456,10,75,-255,17,10,-1
457,10,75,-255,18,6,-2
458,9,75,-255,15,10,0
459,10,74,-255,24,9,3
460,10,75,-255,13,6,6
461,9,73,-255,21,7,9
462,10,74,-255,34,7,12
463,10,74,-255,28,5,9
464,9,72,-256,29,8,6
465,10,74,-255,37,10,-1
466,10,72,-256,14,7,-5
467,10,74,-255,29,8,0
468,10,72,-256,23,8,-1
469,10,72,-256,18,8,-4
470,10,72,-256,18,7,-5
471,10,72,-256,19,9,-3
472,10,71,-256,15,7,-7
473,10,72,-256,13,7,-8
474,10,71,-256,11,14,-6
475,11,71,-256,21,8,-6
476,10,71,-256,19,8,-7
477,10,70,-257,23,9,-5
478,11,70,-256,19,10,-4
479,11,70,-257,23,9,-5
480,10,70,-257,20,11,-6
481,10,70,-256,21,8,-6
482,11,70,-256,19,6,-7
483,10,69,-257,34,7,-2
484,11,69,-257,38,5,-3
485,10,68,-257,42,4,-4
486,10,69,-257,52,0,-1
487,9,66,-258,61,3,-1
488,9,66,-258,59,0,0
489,9,64,-258,47,4,-1
490,9,64,-258,47,4,-1
491,9,63,-258,50,2,-3
492,8,62,-258,44,4,-4
493,9,61,-258,41,5,-6
494,9,61,-258,37,2,-6
495,8,61,-258,44,5,-7
496,8,60,-259,57,12,-7
497,9,58,-259,36,8,-9
498,8,59,-259,53,10,-8
499,8,58,-259,53,12,-8
500,9,56,-259,61,12,-5
501,8,56,-259,45,12,-8
502,8,54,-260,49,15,-5
503,9,54,-259,55,11,-6
504,9,53,-259,42,11,-7
505,9,52,-260,40,12,-8
506,9,51,-260,45,11,-7
507,9,51,-260,42,10,-7
508,9,50,-260,36,12,-7
509,9,50,-260,34,12,-7
510,9,49,-260,37,13,-5
511,9,48,-261,33,15,-8
512,9,49,-260,30,10,-11
513,10,47,-260,18,7,-8
514,9,47,-261,21,11,-8
515,10,47,-261,23,11,-7
516,10,46,-261,17,8,-9
517,10,46,-260,16,11,-9
518,10,46,-261,16,9,-11
519,10,46,-261,7,7,-11
520,10,46,-261,7,9,-14
521,11,46,-261,-7,12,-20
522,9,47,-260,11,8,-15
523,11,47,-260,-13,10,-14
524,10,46,-260,10,9,-15
525,11,47,-260,-7,14,-27
526,11,47,-260,-23,15,-37
527,10,48,-260,-18,20,-31
528,11,48,-260,-14,17,-40
529,12,51,-259,-18,12,-33
530,11,49,-260,-15,18,-29
531,11,51,-260,-10,15,-28
532,11,52,-259,-6,16,-26
533,11,51,-260,-11,15,-26
534,12,52,-260,-3,12,-25
535,11,52,-260,-9,11,-25
536,11,52,-260,-11,14,-25
537,12,53,-260,-14,11,-23
538,11,54,-260,-17,9,-11
539,11,53,-260,13,7,-1
540,11,54,-260,-9,10,-12
541,12,55,-259,-2,8,-13
542,11,54,-259,10,9,-9
543,11,53,-260,9,12,-6
544,12,55,-259,7,11,-11
545,12,54,-259,0,9,-10
546,11,54,-259,8,-4,-8
547,11,54,-259,-5,1,-16
548,11,54,-259,13,10,-11
549,11,55,-259,-9,6,-12
550,11,54,-259,3,0,-18
551,10,55,-259,7,4,-15
552,11,55,-259,-10,2,-14
553,11,57,-258,13,-5,-4
554,10,54,-259,27,0,-6
555,9,54,-259,5,9,-11
556,11,55,-259,14,1,-10
557,9,55,-259,17,2,-6
558,9,53,-260,19,8,-9
559,10,55,-259,11,6,-9
560,10,54,-259,8,6,-9
561,9,54,-259,10,8,-7
562,10,54,-259,14,5,-9
563,10,54,-259,11,5,-10
564,9,54,-259,8,8,-10
565,10,54,-259,12,6,-10
566,10,55,-259,8,5,-10
567,10,54,-259,10,7,-8
568,10,54,-259,9,7,-10
569,9,55,-259,11,5,-10
570,9,54,-259,13,7,-9
571,9,55,-259,17,7,-9
572,9,55,-259,13,5,-10
573,9,55,-259,20,7,-9
574,9,55,-259,18,7,-9
575,9,55,-259,19,5,-10
576,9,54,-259,29,8,-10
577,9,55,-259,18,7,-11
578,9,54,-259,17,6,-12
579,9,55,-259,21,8,-12
580,9,54,-260,14,9,-11
581,9,54,-259,13,7,-12
582,9,54,-259,15,8,-13
583,9,54,-259,17,10,-12
584,9,54,-259,10,8,-12
585,9,54,-259,15,8,-13
586,9,54,-259,16,11,-12
587,9,53,-259,11,7,-13
588,9,54,-259,13,8,-13
589,9,54,-259,12,10,-12
590,9,53,-259,9,6,-13
591,9,53,-259,13,6,-12
592,9,53,-260,14,11,-13
593,9,53,-259,8,7,-14
594,9,53,-259,8,7,-13
595,9,53,-259,16,10,-12
596,9,53,-259,5,9,-14
597,9,53,-259,12,8,-12
598,9,54,-258,7,10,-13
599,10,52,-259,10,8,-13
600,9,53,-259,14,10,-12
601,9,53,-259,17,11,-13
602,9,53,-259,16,10,-16
603,10,53,-259,2,9,-18
604,9,53,-259,10,13,-14
605,10,52,-259,6,10,-12
606,9,53,-259,14,5,-14
607,9,53,-260,4,15,-14
608,10,54,-259,10,18,-15
609,9,53,-259,-2,16,-10
610,9,53,-260,20,13,-12
611,9,53,-259,27,12,-11
612,10,53,-260,18,12,-12
613,9,53,-260,15,16,-12
614,10,52,-260,20,14,-12
615,10,52,-260,19,15,-14
616,10,52,-260,14,15,-16
617,10,52,-260,15,20,-17
618,10,51,-260,5,17,-24
619,11,51,-260,4,20,-28
620,10,52,-260,-6,22,-31
621,11,52,-259,-3,18,-28
622,11,52,-260,-10,14,-27
623,11,53,-259,-10,5,-27
624,10,53,-259,-10,13,-27
625,11,55,-259,18,14,-20
626,11,52,-260,15,12,-16
627,11,53,-259,4,13,-19
628,11,53,-259,23,16,-24
629,11,53,-259,6,17,-37
630,10,52,-259,6,23,-30
631,11,54,-259,30,14,-19
632,11,52,-259,4,19,-19
633,11,53,-259,12,18,-20
634,11,53,-259,11,16,-20
635,11,53,-259,8,12,-13
636,11,54,-259,8,15,-14
637,11,53,-259,1,10,-13
638,11,53,-259,6,11,-13
639,11,54,-259,3,9,-12
640,11,54,-259,-2,9,-13
641,11,54,-259,8,8,-11
642,11,54,-259,4,9,-12
643,11,55,-259,1,7,-13
644,11,54,-259,1,8,-11
645,10,57,-259,7,10,-10
646,11,55,-259,0,8,-11
647,10,56,-259,6,9,-10
648,11,56,-259,6,10,-11
649,11,57,-259,11,7,-11
650,11,56,-259,5,7,-10
651,10,56,-260,5,10,-9
652,11,56,-259,0,6,-12
653,10,56,-259,0,8,-10
654,11,58,-259,9,7,-1
655,11,56,-259,0,6,-3
656,11,58,-258,9,5,-6
657,10,56,-259,10,10,1
658,11,58,-258,25,8,-4
659,10,56,-259,25,15,-8
660,11,56,-259,14,15,-8
661,11,56,-259,24,13,-12
662,11,55,-259,11,10,-17
663,10,56,-259,17,11,-10
664,11,56,-259,10,12,-12
665,11,56,-259,15,7,-13
666,11,56,-259,8,7,-12
667,11,56,-259,7,9,-10
668,11,56,-259,12,7,-10
669,11,56,-260,16,11,-9
670,11,56,-259,22,12,-16
671,12,54,-259,6,13,-37
672,11,56,-259,-35,7,-42
673,11,56,-259,31,7,-21
674,11,57,-259,0,10,-26
675,10,56,-259,5,8,-27
676,11,57,-259,9,10,-21
677,11,58,-259,8,5,-20
678,10,58,-259,12,6,-19
679,10,57,-259,10,6,-17
680,10,58,-259,14,4,-17
681,10,58,-259,12,6,-17
682,9,57,-259,4,10,-17
683,10,58,-259,11,5,-16
684,9,58,-259,10,8,-16
685,9,58,-259,7,10,-15
686,9,57,-259,6,6,-15
687,9,58,-259,11,8,-14
688,9,57,-259,5,12,-13
689,9,58,-259,9,7,-14
690,9,58,-259,5,4,-9
691,9,62,-258,23,1,18
692,11,61,-257,31,-19,60
693,8,55,-260,27,-4,19
694,9,60,-258,20,0,15
695,9,59,-259,18,-1,21
696,10,59,-258,21,-8,18
697,9,57,-259,23,0,10
698,9,58,-259,26,4,5
699,9,56,-259,16,7,-4
700,10,57,-258,9,7,-12
701,9,57,-258,26,7,-17
702,10,59,-258,18,5,-10
703,9,56,-259,11,7,-13
704,10,57,-258,17,6,-14
705,9,57,-258,20,5,-14
706,9,56,-259,22,8,-12
707,9,57,-258,19,11,-14
708,9,56,-259,20,6,-14
709,9,56,-259,18,9,-12
710,9,56,-259,19,10,-11
711,9,56,-259,12,11,-12
712,10,55,-260,7,9,-15
713,9,56,-259,9,9,-18
714,10,55,-260,-5,5,-20
715,9,57,-259,-3,6,-18
716,9,56,-259,-2,5,-20
717,9,56,-259,-7,7,-17
718,9,57,-259,-5,1,-24
719,7,57,-259,-10,11,-14
720,8,58,-258,9,7,-17
721,8,57,-259,7,7,-21
722,8,59,-259,-1,11,-18
723,8,57,-259,9,18,-13
724,10,59,-258,23,12,-19
725,8,57,-260,5,24,-18
726,9,59,-259,26,27,-10
727,10,56,-259,12,1,-17
728,8,58,-260,3,6,-19
729,9,58,-259,22,17,-14
730,9,58,-259,18,15,-18
731,9,57,-259,14,17,-17
732,9,58,-259,17,19,-22
733,10,57,-259,17,18,-16
734,10,57,-259,17,18,-16
735,10,57,-259,16,18,-16
736,11,57,-259,12,14,-16
737,10,57,-259,17,17,-14
738,11,57,-259,19,18,-11
739,11,57,-259,16,14,-13
740,11,56,-259,19,13,-11
741,11,57,-259,23,15,-8
742,12,56,-259,19,12,-9
743,12,56,-259,22,12,-10
744,12,55,-259,19,13,-9
745,12,55,-259,20,12,-11
746,12,55,-259,21,11,-12
747,12,54,-259,22,12,-10
748,12,54,-259,20,10,-12
749,12,54,-259,21,9,-11
750,12,54,-259,18,12,-12
751,12,54,-259,20,10,-11
752,12,54,-259,16,8,-12
753,12,53,-259,18,11,-11
754,12,53,-259,16,9,-11
755,12,54,-259,18,9,-10
756,12,53,-259,18,10,-9
757,12,53,-259,18,11,-9
758,12,53,-259,17,8,-10
759,12,53,-259,19,11,-10
760,11,53,-259,24,11,-8
761,12,53,-259,19,10,-10
762,12,52,-259,21,11,-10
763,12,52,-259,26,16,-11
764,13,52,-259,13,11,-13
765,12,51,-259,18,12,-11
766,12,52,-260,18,13,-8
767,13,51,-259,13,10,-9
768,12,51,-259,11,13,-10
769,12,51,-259,11,14,-8
770,13,51,-260,5,11,-7
771,12,51,-259,7,12,-9
772,12,51,-260,8,15,-7
773,13,51,-259,9,11,-10
774,12,51,-260,5,18,-12
775,12,51,-259,-5,26,-10
776,14,52,-260,8,12,-9
777,14,52,-260,-1,10,-7
778,13,54,-260,25,17,-3
779,14,51,-260,1,10,-12
780,13,52,-261,11,7,-12
781,14,52,-260,13,13,-10
782,14,52,-260,11,11,-10
783,14,52,-260,13,11,-11
784,13,52,-260,6,14,-11
785,14,51,-260,13,10,-11
786,14,52,-260,9,10,-10
787,13,52,-260,14,12,-9
788,14,52,-260,8,12,-8
789,14,52,-260,12,8,-8
790,14,52,-260,8,8,-10
791,13,52,-260,18,8,-11
792,13,53,-260,13,11,-10
793,13,51,-260,16,9,-10
794,12,52,-260,15,12,-10
795,13,51,-260,13,12,-10
796,13,52,-260,17,12,-10
797,13,51,-260,14,12,-11
798,13,51,-260,12,9,-11
799,13,50,-260,13,8,-11
800,13,51,-260,15,10,-10
801,13,51,-260,16,8,-13
802,13,51,-259,11,8,-14
803,13,50,-260,17,11,-12
804,13,51,-259,19,8,-13
805,13,51,-259,17,7,-14
806,14,50,-260,15,7,-11
807,13,51,-259,19,5,-11
808,13,50,-259,15,7,-13
809,13,49,-260,17,9,-12
810,13,50,-260,17,6,-12
811,13,49,-259,15,8,-14
812,13,49,-260,14,11,-19
813,13,48,-260,1,12,-25
814,14,50,-260,0,9,-26
815,12,49,-260,12,8,-22
816,12,49,-260,7,8,-19
817,13,49,-260,9,6,-20
818,12,49,-260,12,8,-16
819,12,49,-260,7,9,-16
820,12,48,-260,4,10,-14
821,13,48,-260,10,12,-4
822,13,49,-260,4,6,-3
823,13,48,-260,0,10,-5
824,13,49,-260,-2,-1,-2
825,13,49,-260,1,9,0
826,13,49,-260,-5,4,-3
827,13,50,-260,1,5,-3
828,13,50,-260,3,2,-4
829,13,50,-260,2,2,-7
830,13,50,-260,0,6,-8
831,12,50,-260,6,7,-8
832,13,50,-260,1,3,-8
833,12,50,-260,-3,7,-10
834,12,50,-260,11,9,-6
835,12,52,-259,20,5,0
836,13,51,-260,31,7,5
837,12,49,-260,25,8,0
838,13,51,-259,24,6,-3
839,13,49,-260,21,8,-6
840,12,48,-260,33,12,-5
841,13,50,-260,25,11,-5
842,13,47,-260,33,10,-8
843,13,47,-261,26,13,-8
844,13,47,-260,22,11,-7
845,13,47,-260,27,11,-8
846,13,46,-261,25,12,-7
847,14,46,-261,19,9,-9
848,13,46,-260,15,10,-11
849,13,47,-261,20,13,-10
850,14,45,-261,20,10,-9
851,13,45,-261,4,11,-9
852,13,46,-261,28,9,-3
853,14,46,-260,21,10,-3
854,14,44,-261,19,7,-7
855,13,46,-260,23,10,-7
856,13,45,-261,20,7,-4
857,14,45,-261,17,8,-6
858,13,44,-261,15,9,-8
859,14,44,-261,15,8,-6
860,13,44,-261,14,6,-7
861,13,44,-261,15,9,-7
862,13,44,-261,14,8,-8
863,13,44,-261,8,6,-10
864,13,43,-261,9,8,-10
865,13,44,-261,8,8,-11
866,13,43,-261,8,13,-8
867,13,45,-261,11,9,-9
868,13,43,-261,10,7,-8
869,13,44,-261,5,4,-10
870,13,43,-261,2,-4,-10
871,13,43,-261,7,5,-8
872,13,43,-261,6,0,-8
873,13,43,-261,4,2,-11
874,12,43,-261,7,2,-10
875,13,43,-261,4,1,-10
876,12,43,-261,6,2,-9
877,12,44,-261,7,3,-10
878,12,44,-261,18,2,-12
879,12,42,-262,24,17,-24
880,12,42,-261,-8,26,-34
881,14,44,-261,7,18,-29
882,13,44,-262,4,16,-31
883,13,43,-261,10,20,-29
884,13,43,-261,-4,19,-31
885,13,44,-261,2,15,-29
886,13,45,-261,0,16,-25
887,13,44,-261,-1,15,-25
888,13,45,-261,5,12,-23
889,13,45,-261,5,15,-20
890,14,45,-261,6,13,-22
891,13,45,-261,6,13,-22
892,13,45,-261,10,14,-20
893,13,45,-261,8,15,-21
894,14,45,-261,7,12,-20
895,13,44,-261,0,15,-17
896,14,47,-260,-13,10,8
897,14,45,-261,29,-6,2
898,14,45,-261,0,4,-14
899,14,47,-260,14,2,-8
900,13,46,-261,8,0,-1
901,13,45,-261,14,-2,0
902,13,46,-260,14,4,-4
903,14,46,-260,20,1,-7
904,13,45,-260,9,3,-7
905,13,46,-260,18,2,-6
906,13,46,-260,17,3,-9
907,13,45,-260,16,5,-10
908,13,46,-260,18,10,-12
909,13,46,-260,20,11,-26
910,13,44,-261,-18,12,-35
911,13,46,-260,9,17,-27
912,14,45,-261,-8,8,-26
913,13,47,-260,-15,2,-27
914,12,47,-260,-4,8,-22
915,13,48,-259,-5,8,-20
916,12,46,-262,-5,7,-19
917,12,48,-260,-4,5,-18
918,12,48,-260,-4,5,-17
919,12,48,-261,3,6,-16
920,12,48,-260,0,9,-14
921,13,47,-260,2,6,-18
922,12,49,-260,6,5,-19
923,12,48,-260,5,4,-18
924,13,49,-259,16,7,-16
925,12,49,-261,14,7,-15
926,12,48,-261,13,14,-13
927,12,49,-260,17,12,-15
928,12,48,-260,16,12,-16
929,12,48,-261,17,14,-20
930,12,48,-260,3,13,-26
931,12,49,-260,2,12,-22
932,12,49,-260,5,11,-21
933,12,49,-260,-9,7,-22
934,11,49,-261,0,11,-18
935,11,51,-260,8,11,-13
936,12,50,-261,1,15,-15
937,12,50,-260,2,8,-15
938,12,50,-261,2,13,-14
939,11,51,-260,3,13,-14
940,12,52,-260,0,7,-15
941,12,52,-260,-1,5,-17
942,11,52,-260,6,10,-14
943,12,52,-260,2,5,-13
944,11,52,-260,11,8,-13
945,12,51,-260,1,9,-14
946,12,52,-261,4,7,-14
947,11,51,-260,0,8,-15
948,12,52,-260,7,10,-14
949,12,52,-260,5,7,-15
950,12,53,-260,5,8,-16
951,11,52,-260,8,11,-15
952,12,52,-260,9,7,-14
953,12,52,-260,12,11,-14
954,12,52,-260,15,12,-14
955,12,52,-260,12,11,-15
956,12,52,-260,12,9,-14
957,12,52,-260,12,13,-12
958,12,52,-260,9,10,-11
959,12,53,-260,15,10,-11
960,11,52,-260,3,13,-10
961,12,52,-260,17,12,-6
962,12,52,-260,8,9,-9
963,11,52,-260,13,10,-9
964,11,51,-260,11,10,-8
965,13,52,-259,19,9,-8
966,11,52,-260,14,13,-8
967,11,51,-261,17,11,-8
968,12,51,-260,10,10,-8
969,12,49,-260,14,12,-8
970,12,51,-260,12,12,-9
971,12,50,-260,14,9,-10
972,12,50,-260,12,12,-10
973,12,50,-260,13,10,-11
974,12,50,-260,13,9,-10
975,12,50,-260,17,11,-11
976,12,50,-260,19,11,-11
977,12,50,-260,15,10,-11
978,12,50,-260,15,11,-11
979,12,50,-260,15,11,-12
980,12,50,-260,14,11,-11
981,13,49,-260,9,11,-11
982,12,49,-260,11,16,-10
983,13,51,-259,10,9,-12
984,12,50,-260,11,11,-13
985,12,49,-260,16,10,-12
986,12,49,-260,4,11,-12
987,12,49,-260,7,10,-15
988,12,49,-260,16,14,-11
989,12,50,-259,17,10,-11
990,12,48,-260,11,13,-13
991,12,48,-260,13,13,-13
992,12,48,-260,11,10,-12
993,12,49,-260,12,12,-13
994,12,49,-260,16,12,-12
995,12,48,-260,19,11,-12
996,12,48,-261,17,11,-14
997,12,48,-260,19,11,-12
998,13,48,-260,20,10,-13
999,12,48,-260,22,12,-14
1000,13,47,-261,18,11,-14
1001,13,47,-261,15,9,-12
1002,13,48,-260,7,15,-14
1003,12,46,-261,15,21,-13
1004,13,47,-261,8,9,-16
1005,14,47,-261,19,10,-16
1006,13,47,-261,5,9,-16
1007,14,46,-261,10,8,-15
1008,13,48,-261,17,7,-15
1009,13,46,-261,-3,15,-12
1010,13,45,-261,-3,11,-14
1011,14,47,-261,-5,8,-18
1012,13,48,-261,6,10,-13
1013,13,47,-261,-2,10,-12
1014,13,48,-261,-11,9,-15
1015,13,47,-261,6,7,-14
1016,13,48,-261,-8,12,-10
1017,13,48,-261,-4,10,-14
1018,12,48,-261,-1,12,-13
1019,13,48,-261,3,12,-12
1020,13,48,-261,-4,14,-12
1021,13,49,-261,4,11,-16
1022,13,49,-261,-1,15,-11
1023,13,49,-261,-1,9,-14
1024,13,50,-261,-2,12,-15
1025,13,50,-261,-1,12,-14
1026,13,50,-261,-2,8,-13
1027,13,50,-261,-4,10,-15
1028,13,51,-260,4,10,-15
1029,13,51,-260,-6,9,-14
1030,13,52,-260,-3,12,-13
1031,13,51,-261,-3,12,-16
1032,13,52,-260,0,8,-14
1033,13,52,-260,4,12,-12
1034,13,54,-260,-4,10,-16
1035,13,52,-260,0,8,-16
1036,13,53,-260,0,12,-16
1037,13,53,-260,-10,11,-18
1038,13,54,-260,4,7,-15
1039,13,53,-260,-1,13,-14
1040,13,54,-260,0,10,-16
1041,13,54,-259,8,7,-16
1042,13,54,-259,-3,14,-17
1043,13,54,-259,-6,12,-21
1044,13,56,-259,6,10,-15
1045,13,55,-259,5,13,-14
1046,13,55,-259,-1,11,-17
1047,14,55,-259,3,10,-18
1048,14,56,-258,0,12,-16
1049,14,56,-259,0,11,-18
1050,14,56,-259,1,10,-16
1051,14,58,-258,6,6,-15
1052,13,56,-258,5,11,-15
1053,14,57,-259,-5,11,-25
1054,14,58,-258,8,3,-23
1055,13,57,-259,5,10,-21
1056,14,57,-258,0,10,-26
1057,14,59,-258,7,8,-24
1058,13,57,-258,4,10,-24
1059,13,58,-258,6,10,-25
1060,13,58,-258,6,7,-22
1061,13,58,-258,1,10,-25
1062,13,57,-258,2,12,-20
1063,13,58,-258,-1,10,-22
1064,13,58,-258,-2,8,-24
1065,13,59,-258,-4,9,-23
1066,13,59,-258,-2,8,-22
1067,12,59,-258,-5,11,-19
1068,13,60,-258,6,10,-20
1069,13,59,-259,3,8,-21
1070,13,59,-259,2,11,-19
1071,13,60,-258,5,10,-10
1072,13,60,-258,18,4,8
1073,13,59,-259,39,7,5
1074,13,58,-259,3,10,-5
1075,13,59,-258,19,5,-1
1076,13,58,-259,22,7,-1
1077,13,58,-259,19,11,-3
1078,13,58,-259,12,6,-6
1079,13,58,-259,21,8,-4
1080,12,58,-259,15,13,-6
1081,13,58,-259,11,11,-9
1082,13,59,-259,13,10,-9
1083,13,58,-259,10,12,-9
1084,13,58,-259,11,9,-10
1085,13,59,-259,12,9,-12
1086,13,58,-259,11,12,-11
1087,13,58,-259,10,13,-9
1088,27,49,-257,-9,44,-24
1089,15,57,-259,1,20,-15
1090,16,55,-259,4,17,-14
1091,17,55,-259,5,22,-14
1092,18,54,-259,6,21,-12
1093,16,55,-259,6,16,-12
1094,16,55,-259,2,18,-15
1095,16,54,-259,10,19,-12
1096,16,55,-258,7,15,-12
1097,15,55,-259,11,15,-10
1098,15,54,-259,13,14,-10
1099,15,55,-258,14,13,-11
1100,15,54,-259,12,13,-11
1101,14,54,-259,13,15,-10
1102,14,55,-259,13,15,-12
1103,14,53,-259,4,13,-16
1104,14,54,-259,-13,15,-28
1105,13,55,-259,7,14,-29
1106,14,54,-259,-9,13,-27
1107,13,55,-259,3,12,-22
1108,14,55,-259,-5,12,-26
1109,13,55,-259,-1,10,-24
1110,13,56,-259,-1,14,-21
1111,12,55,-259,-4,16,-24
1112,13,56,-259,-4,11,-22
1113,12,56,-259,-4,13,-21
1114,12,57,-258,0,12,-19
1115,12,56,-258,-5,12,-21
1116,12,57,-259,1,15,-18
1117,12,58,-258,2,13,-19
1118,12,58,-258,-1,9,-21
1119,12,58,-258,5,12,-19
1120,12,58,-258,3,13,-18
1121,13,58,-258,0,11,-20
1122,12,58,-258,-2,10,-20
1123,13,58,-258,0,11,-18
1124,13,59,-258,-4,9,-19
1125,13,59,-258,-6,9,-22
1126,13,59,-258,0,12,-17
1127,13,60,-257,-1,9,-18
1128,13,60,-258,3,8,-20
1129,12,59,-258,-5,13,-19
1130,13,61,-257,3,10,-19
1131,13,61,-257,2,9,-18
1132,12,60,-258,7,13,-13
1133,13,61,-257,7,10,-17
1134,13,61,-258,4,10,-15
1135,13,61,-258,13,9,-14
1136,13,61,-258,11,8,-15
1137,13,61,-258,12,7,-14
1138,13,61,-258,8,10,-14
1139,13,61,-258,9,6,-15
1140,13,61,-258,6,7,-15
1141,13,61,-258,10,9,-13
1142,13,61,-258,7,8,-14
1143,13,62,-257,7,7,-14
1144,13,61,-258,11,10,-13
1145,13,62,-257,9,9,-14
1146,13,62,-258,9,8,-13
1147,13,62,-257,9,11,-13
1148,13,62,-258,5,11,-13
1149,13,62,-257,9,9,-13
1150,13,62,-257,9,11,-14
1151,13,62,-258,6,11,-13
1152,13,62,-257,7,9,-13
1153,13,63,-257,12,10,-13
1154,13,63,-257,6,11,-13
1155,13,63,-258,9,9,-13
1156,12,63,-257,10,10,-12
1157,12,63,-257,9,10,-12
1158,12,63,-257,6,10,-13
1159,13,63,-257,9,11,-13
1160,12,63,-257,4,11,-13
1161,12,63,-257,5,9,-13
1162,12,63,-257,3,13,-13
1163,12,63,-257,4,15,-10
1164,12,63,-257,4,11,-11
1165,12,64,-257,14,11,-11
1166,14,63,-257,-2,7,-9
1167,13,63,-258,7,6,-9
1168,13,64,-257,7,6,-8
1169,12,63,-258,9,5,-7
1170,13,64,-257,0,7,-9
1171,13,64,-258,9,5,-10
1172,12,64,-258,5,6,-9
1173,12,64,-258,5,7,-10
1174,12,64,-257,1,7,-12
1175,12,64,-258,4,10,-8
1176,12,65,-258,4,10,-10
1177,12,64,-258,2,7,-11
1178,12,64,-258,6,12,-8
1179,12,64,-258,14,8,-12
1180,12,64,-258,8,8,-14
1181,12,64,-258,9,10,-13
1182,12,63,-258,12,13,-13
1183,12,64,-258,10,7,-14
1184,12,63,-258,6,10,-14
1185,12,63,-258,4,10,-13
1186,12,64,-257,8,7,-12
1187,13,64,-257,1,12,-11
1188,12,63,-258,5,8,-14
1189,12,63,-258,5,8,-10
1190,12,64,-257,13,10,-12
1191,13,64,-257,9,10,-11
1192,12,63,-258,7,6,-11
1193,12,64,-258,13,6,-11
1194,12,64,-258,10,8,-10
1195,12,64,-258,4,6,-13
1196,11,64,-258,14,10,-9
1197,12,64,-258,11,8,-12
1198,13,63,-258,18,5,-13
1199,13,66,-257,3,5,-13
1200,12,64,-258,11,7,-16
1201,12,63,-258,4,8,-12
1202,13,64,-258,11,9,-13
1203,13,62,-259,4,5,-18
1204,12,65,-258,7,7,-15
1205,12,63,-258,10,6,-16
1206,12,64,-258,7,7,-15
1207,13,64,-258,5,5,-16
1208,12,63,-258,9,4,-16
1209,12,64,-258,6,6,-15
1210,12,64,-258,7,5,-16
1211,12,64,-257,4,5,-14
1212,12,64,-258,6,7,-13
1213,12,65,-257,9,5,-14
1214,12,64,-258,7,5,-14
1215,11,64,-258,10,8,-12
1216,12,65,-258,13,6,-14
1217,11,64,-257,10,5,-14
1218,11,64,-258,8,8,-13
1219,11,64,-258,12,9,-14
1220,12,64,-258,8,6,-14
1221,11,63,-258,11,10,-12
1222,11,64,-257,11,8,-12
1223,11,64,-258,7,6,-14
1224,11,64,-257,10,7,-14
1225,11,64,-257,1,9,-14
1226,11,65,-257,9,7,-14
1227,11,64,-257,0,14,-9
1228,11,64,-257,8,10,-12
1229,11,64,-257,9,8,-13
1230,11,65,-257,14,7,-13
1231,11,65,-257,16,12,-10
1232,11,64,-257,13,7,-12
1233,11,64,-257,18,7,-11
1234,10,64,-257,8,10,-11
1235,11,64,-257,11,6,-10
1236,10,64,-257,12,8,-9
1237,10,64,-257,7,9,-10
1238,11,65,-256,14,6,-13
1239,10,63,-257,3,14,-7
1240,10,64,-257,12,7,-11
1241,10,65,-257,16,9,-12
1242,11,65,-257,16,10,-10
1243,11,64,-257,11,8,-13
1244,11,64,-257,23,9,-12
1245,11,64,-258,15,8,-12
1246,11,64,-257,17,10,-11
1247,11,64,-257,13,8,-14
1248,11,65,-257,12,9,-14
1249,10,63,-258,5,17,-7
1250,11,63,-258,14,9,-13
1251,10,64,-257,13,13,-10
1252,11,63,-258,15,9,-10
1253,11,63,-258,7,14,-13
1254,10,63,-258,18,11,-10
1255,11,63,-258,11,10,-9
1256,11,63,-258,20,8,-12
1257,11,63,-258,17,8,-12
1258,11,62,-258,20,11,-10
1259,11,63,-257,11,9,-13
1260,11,63,-258,11,8,-11
1261,11,63,-258,13,9,-13
1262,11,63,-258,6,13,-13
1263,10,62,-258,2,17,-7
1264,11,61,-259,7,8,-13
1265,11,61,-258,11,11,-11
1266,11,63,-257,10,9,-11
1267,11,63,-258,13,9,-11
1268,11,61,-258,4,12,-3
1269,12,62,-258,18,9,1
1270,11,61,-258,16,14,5
1271,11,61,-259,11,9,2
1272,12,60,-259,9,8,1
1273,12,61,-259,18,11,2
1274,11,60,-259,12,11,1
1275,12,60,-259,10,8,-3
1276,12,61,-258,24,8,-4
1277,12,60,-258,10,16,0
1278,12,60,-258,11,8,-5
1279,11,64,-258,24,2,-6
1280,11,61,-258,13,10,-5
1281,12,61,-258,9,8,-10
1282,13,65,-256,45,-1,-6
1283,11,62,-258,12,11,-4
1284,11,60,-259,15,10,-8
1285,12,62,-258,16,6,-6
1286,12,62,-258,18,10,-6
1287,12,61,-258,15,10,-8
1288,11,62,-258,18,9,-9
1289,12,62,-258,22,3,-10
1290,13,62,-257,23,6,-10
1291,12,60,-259,25,6,-10
1292,12,60,-258,24,9,-11
1293,12,60,-258,26,9,-13
1294,13,60,-258,21,5,-12
1295,12,59,-258,26,8,-11
1296,12,59,-258,21,9,-12
1297,12,59,-258,20,7,-12
1298,12,59,-258,21,9,-12
1299,12,58,-258,21,10,-12
1300,12,58,-258,16,7,-12
1301,12,58,-258,21,9,-12
1302,12,58,-258,17,10,-12
1303,12,58,-258,15,9,-11
1304,12,58,-258,19,10,-13
1305,12,57,-258,12,8,-13
1306,12,57,-258,14,4,-12
1307,12,58,-258,23,2,-13
1308,12,56,-259,31,1,-13
1309,11,56,-259,31,-7,-15
1310,11,57,-259,39,-21,-19
1311,10,55,-259,24,-41,-33
1312,9,55,-259,42,-53,-39
1313,7,55,-259,18,-53,-45
1314,6,53,-259,26,-57,-42
1315,4,56,-259,37,-61,-43
1316,3,52,-259,27,-63,-48
1317,1,54,-259,50,-66,-51
1318,-1,50,-260,28,-46,-39
1319,-2,50,-259,29,-25,-22
1320,-2,50,-259,15,-1,-7
1321,-2,48,-260,-11,17,12
1322,-1,52,-259,-3,17,19
1323,0,50,-260,0,21,18
1324,0,52,-259,10,18,9
1325,0,51,-259,0,17,8
1326,0,52,-259,0,22,9
1327,0,51,-259,0,22,6
1328,0,52,-259,6,18,4
1329,0,52,-259,1,21,2
1330,0,53,-259,3,23,1
1331,0,53,-259,4,17,1
1332,0,53,-259,5,22,0
1333,0,53,-259,13,23,-1
1334,1,53,-259,11,19,-3
1335,1,53,-259,14,21,-4
1336,1,53,-259,13,24,-4
1337,1,53,-259,18,20,-6
1338,1,53,-259,17,21,-6
1339,1,53,-259,17,22,-5
1340,2,53,-259,18,19,-9
1341,2,52,-259,21,19,-9
1342,2,52,-259,18,23,-8
1343,2,52,-259,16,18,-10
1344,2,52,-259,20,19,-9
1345,3,52,-260,16,20,-9
1346,3,51,-259,16,17,-11
1347,3,52,-260,21,16,-10
1348,3,51,-260,14,18,-9
1349,3,51,-260,15,14,-11
1350,3,51,-260,18,15,-11
1351,3,51,-260,15,17,-10
1352,3,51,-260,16,13,-11
1353,4,51,-260,15,14,-10
1354,3,51,-260,13,16,-9
1355,3,51,-260,15,13,-11
1356,3,51,-260,18,15,-11
1357,3,51,-260,12,20,-14
1358,3,51,-260,10,23,-21
1359,4,51,-260,-1,21,-23
1360,4,51,-260,15,23,-21
1361,4,51,-260,-3,21,-26
1362,4,52,-259,2,16,-25
1363,4,51,-260,3,18,-20
1364,5,52,-260,-1,16,-21
1365,4,52,-260,-4,16,-21
1366,5,53,-260,-9,14,-22
1367,5,53,-260,0,15,-18
1368,5,53,-260,-1,12,-19
1369,5,53,-260,-1,15,-18
1370,5,54,-260,0,13,-18
1371,5,54,-260,2,11,-17
1372,5,54,-260,2,15,-16
1373,6,54,-260,2,14,-18
1374,5,54,-260,6,10,-18
1375,5,54,-260,6,13,-17
1376,6,54,-260,3,12,-17
1377,6,54,-260,5,9,-17
1378,5,54,-260,9,13,-15
1379,5,54,-260,7,11,-15
1380,6,54,-260,6,8,-15
1381,5,54,-260,7,10,-15
1382,6,54,-260,4,11,-15
1383,5,54,-260,5,7,-15
1384,5,54,-260,9,9,-15
1385,5,54,-260,6,11,-14
1386,5,54,-260,6,7,-14
1387,5,54,-260,7,9,-15
1388,5,55,-259,4,12,-13
1389,5,55,-259,7,9,-14
1390,5,54,-260,7,11,-13
1391,5,55,-259,3,11,-12
1392,5,56,-259,5,8,-14
1393,5,56,-259,7,11,-12
1394,5,55,-259,4,11,-12
1395,5,56,-259,6,9,-13
1396,5,56,-259,5,10,-13
1397,5,56,-259,6,11,-12
1398,5,56,-259,6,9,-13
1399,5,57,-259,8,11,-13
1400,5,56,-259,3,11,-11
1401,5,56,-259,5,9,-13
1402,5,57,-259,8,10,-13
1403,5,57,-259,5,11,-11
1404,5,57,-259,7,9,-13
1405,5,57,-259,8,10,-13
1406,5,57,-259,5,11,-12
1407,5,57,-259,8,8,-14
1408,5,57,-259,10,11,-13
1409,5,57,-259,8,11,-11
1410,5,57,-259,8,9,-13
1411,5,57,-259,11,10,-13
1412,5,57,-259,12,12,-11
1413,5,57,-259,11,11,-12
1414,5,57,-259,7,10,-13
1415,5,56,-259,9,11,-12
1416,6,57,-259,16,10,-14
1417,5,57,-259,10,9,-13
1418,5,56,-259,5,13,-11
1419,5,57,-259,10,9,-11
1420,5,57,-259,12,9,-13
1421,5,56,-259,6,10,-11
1422,5,56,-259,6,11,-11
1423,6,56,-259,7,8,-14
1424,5,56,-259,6,11,-11
1425,5,58,-258,-9,8,-13
1426,5,57,-259,4,11,-10
1427,6,58,-258,3,11,-11
1428,6,57,-259,-5,7,-17
1429,5,58,-258,-9,16,-9
1430,5,58,-258,15,11,-11
1431,5,58,-258,-1,11,-12
1432,5,58,-258,-4,10,-11
1433,5,57,-259,-8,18,0
1434,5,58,-259,14,13,6
1435,5,58,-258,9,11,3
1436,5,57,-259,9,14,0
1437,5,58,-259,10,15,-1
1438,5,58,-258,21,12,0
1439,5,57,-258,19,15,-1
1440,5,57,-258,11,17,-3
1441,6,56,-259,19,16,-3
1442,6,57,-259,15,15,-3
1443,5,56,-259,13,16,-4
1444,6,56,-259,11,10,-8
1445,7,55,-259,19,13,-7
1446,6,56,-259,24,15,-7
1447,7,55,-259,20,11,-8
1448,6,56,-259,25,17,-9
1449,7,55,-259,13,22,-20
1450,7,55,-259,7,21,-25
1451,7,55,-259,10,22,-25
1452,7,56,-259,7,21,-21
1453,7,55,-260,9,17,-25
1454,7,56,-259,11,17,-24
1455,7,55,-260,2,19,-21
1456,7,56,-259,8,15,-19
1457,8,55,-260,2,13,-18
1458,7,54,-260,-15,14,-7
1459,8,57,-259,22,14,3
1460,8,55,-259,4,9,-5
1461,9,58,-257,4,11,-12
1462,8,58,-258,27,11,-6
1463,8,57,-258,16,8,-5
1464,9,57,-259,18,10,-6
1465,8,56,-259,11,12,-9
1466,8,56,-259,20,9,-8
1467,8,56,-259,18,14,-6
1468,9,56,-259,13,10,-10
1469,9,55,-259,14,1,-12
1470,8,54,-260,18,10,-8
1471,9,55,-259,20,3,-9
1472,9,54,-259,16,7,-10
1473,8,54,-259,16,9,-8
1474,9,54,-259,7,3,-13
1475,9,54,-259,22,7,-12
1476,7,54,-261,27,11,-8
1477,8,55,-258,14,10,-10
1478,8,54,-259,20,9,-8
1479,8,55,-260,18,6,-9
1480,8,55,-259,26,9,-12
1481,8,54,-260,15,6,-10
1482,8,55,-260,25,8,-12
1483,8,54,-259,24,10,-10
1484,8,54,-260,19,10,-9
1485,8,54,-260,26,8,-12
1486,8,53,-261,29,10,-13
1487,9,52,-260,14,2,-13
1488,9,52,-261,24,6,-12
1489,9,52,-261,19,10,-12
1490,10,51,-261,17,5,-14
1491,10,52,-261,14,3,-14
1492,9,51,-261,13,12,-13
1493,9,51,-262,18,10,-13
1494,9,52,-262,7,7,-10
1495,9,51,-262,9,11,-13
1496,9,51,-261,15,9,-13
1497,9,52,-261,15,7,-13
1498,9,51,-262,13,8,-12
1499,9,51,-261,11,9,-12
1500,9,51,-261,14,9,-13
1501,9,51,-261,12,11,-12
1502,9,50,-261,12,7,-12
1503,9,51,-261,17,10,-13
1504,9,51,-261,26,11,-14
1505,9,50,-261,23,14,-16
1506,10,51,-260,16,14,-14
1507,9,50,-261,29,14,-14
1508,9,50,-261,24,10,-15
1509,9,49,-261,18,9,-15
1510,10,50,-260,23,12,-14
1511,10,50,-261,24,10,-17
1512,10,49,-261,15,11,-16
1513,9,49,-262,15,17,-12
1514,10,50,-260,11,13,-16
1515,10,49,-261,16,10,-18
1516,10,50,-261,10,12,-19
1517,9,48,-261,1,18,-13
1518,10,48,-261,4,9,-18
1519,10,49,-261,1,13,-18
1520,10,49,-260,11,14,-17
1521,10,48,-260,0,17,-13
1522,10,50,-260,9,14,-19
1523,9,49,-260,3,20,-13
1524,10,49,-260,2,12,-17
1525,10,49,-260,1,11,-17
1526,10,50,-260,9,14,-14
1527,10,50,-260,0,13,-13
1528,10,50,-260,8,12,-16
1529,10,50,-260,-7,16,-12
1530,10,49,-260,-8,11,-15
1531,10,50,-260,5,11,-13
1532,10,51,-260,4,15,-10
1533,10,51,-260,5,10,-12
1534,10,50,-260,11,11,-14
1535,10,51,-260,2,16,-15
1536,11,51,-260,0,10,-16
1537,11,51,-260,5,9,-15
1538,11,51,-260,2,12,-15
1539,11,51,-260,2,9,-18
1540,11,51,-260,15,10,-14
1541,12,53,-259,0,11,-15
1542,11,52,-260,9,8,-18
1543,11,53,-260,12,12,-18
1544,11,51,-260,10,10,-15
1545,11,53,-259,3,6,-21
1546,11,53,-260,26,14,-25
1547,11,52,-260,20,15,-29
1548,11,51,-260,20,12,-31
1549,11,52,-260,20,19,-29
1550,11,51,-260,27,18,-31
1551,12,51,-260,30,16,-28
1552,11,50,-260,18,16,-28
1553,12,51,-260,25,14,-25
1554,12,50,-260,19,13,-25
1555,12,51,-260,20,12,-30
1556,12,49,-261,14,11,-26
1557,12,50,-261,16,11,-19
1558,12,50,-260,11,11,-21
1559,12,50,-261,11,12,-19
1560,12,50,-260,19,9,-19
1561,12,50,-261,21,11,-17
1562,12,50,-260,28,18,-14
1563,12,49,-260,26,13,-19
1564,11,49,-260,25,14,-17
1565,11,48,-261,22,17,-13
1566,12,48,-261,16,15,-9
1567,12,49,-260,27,19,-7
1568,11,48,-261,-2,15,-7
1569,11,48,-260,-2,8,-2
1570,11,51,-260,24,14,-8
1571,11,51,-261,24,13,-2
1572,12,50,-260,14,10,-6
1573,11,50,-260,21,12,-5
1574,11,50,-261,22,13,-6
1575,11,51,-265,14,16,0
1576,12,50,-263,23,15,0
1577,12,50,-262,20,17,-8
1578,12,48,-263,19,10,-6
1579,12,49,-263,11,12,-4
1580,13,49,-263,19,10,-2
1581,12,49,-262,16,10,-5
1582,12,49,-262,17,9,-5
1583,12,48,-262,16,11,-5
1584,13,48,-262,16,10,-4
1585,12,49,-262,17,10,-5
1586,12,48,-262,15,11,-6
1587,12,48,-262,16,10,-6
1588,12,48,-262,15,9,-5
1589,12,48,-262,15,12,-6
1590,12,47,-262,14,12,-6
1591,12,48,-262,11,14,-5
1592,12,48,-262,24,12,0
1593,12,48,-261,19,15,2
1594,12,48,-261,18,8,0
1595,12,48,-262,17,12,0
1596,12,47,-261,27,11,0
1597,12,46,-261,15,9,-1
1598,12,47,-261,23,9,-1
1599,12,46,-261,21,8,-1
1600,12,46,-261,14,7,-2
1601,12,45,-261,17,9,-1
1602,12,45,-261,14,9,-2
1603,12,46,-261,16,9,-4
1604,12,45,-261,13,8,-4
1605,12,46,-261,18,7,-4
1606,12,45,-261,17,7,-5
1607,12,45,-261,20,12,-5
1608,12,45,-260,22,9,-6
1609,12,44,-261,13,8,-6
1610,12,44,-261,21,12,-7
1611,12,44,-261,19,12,-8
1612,12,44,-262,16,10,-7
1613,12,44,-261,17,12,-9
1614,12,43,-262,21,13,-9
1615,12,42,-262,10,9,-10
1616,12,43,-262,20,8,-10
1617,12,43,-261,16,6,-10
1618,11,43,-261,31,8,-16
1619,11,42,-262,39,13,-24
1620,12,42,-261,29,13,-26
1621,11,41,-262,33,9,-23
1622,11,41,-262,32,13,-24
1623,11,40,-261,30,16,-25
1624,12,40,-262,35,13,-17
1625,11,40,-261,35,8,-17
1626,12,39,-261,26,3,-14
1627,12,39,-261,33,5,-15
1628,12,38,-262,23,9,-16
1629,12,38,-262,28,7,-15
1630,11,38,-262,24,5,-14
1631,10,38,-262,50,18,-2
1632,10,37,-262,56,19,-13
1633,11,34,-262,34,11,-18
1634,11,36,-262,32,13,-17
1635,11,34,-263,31,14,-16
1636,11,35,-262,46,8,-9
1637,10,32,-263,40,16,-8
1638,11,33,-262,33,9,-13
1639,10,32,-263,32,15,-11
1640,10,32,-262,31,11,-9
1641,10,31,-263,31,16,-10
1642,10,30,-262,22,17,-13
1643,9,31,-263,2,14,-13
1644,9,31,-262,6,11,-6
1645,10,32,-262,10,10,-4
1646,9,32,-262,3,12,-5
1647,9,31,-263,2,13,-4
1648,9,32,-262,1,9,-2
1649,9,32,-262,3,7,0
1650,9,32,-262,0,5,-2
1651,10,31,-264,1,9,-9
1652,9,32,-262,1,11,-9
1653,9,31,-263,0,18,-6
1654,10,34,-262,4,13,-3
1655,10,33,-263,0,10,-4
1656,10,33,-262,-3,7,-2
1657,9,34,-263,3,6,-2
1658,10,35,-262,-10,8,-4
1659,10,35,-262,-13,11,-5
1660,10,35,-262,-18,7,-9
1661,9,37,-261,-12,10,-9
1662,10,37,-262,0,11,-6
1663,10,38,-262,-9,14,-7
1664,10,37,-261,-3,10,-13
1665,11,38,-262,-16,15,-11
1666,10,38,-262,-14,10,-12
1667,10,40,-262,0,12,-14
1668,10,38,-263,-3,16,-9
1669,11,41,-262,0,11,-14
1670,10,39,-262,-6,14,-14
1671,10,41,-261,-7,15,-15
1672,10,42,-261,-3,14,-17
1673,11,40,-262,6,14,-13
1674,10,43,-261,-4,17,-11
1675,9,44,-261,10,13,-16
1676,9,44,-261,19,4,-7
1677,11,42,-261,2,14,-12
1678,10,43,-262,14,10,-8
1679,11,44,-261,8,11,-11
1680,10,44,-261,12,15,-8
1681,10,43,-261,6,11,-9
1682,10,44,-262,12,9,-8
1683,10,44,-261,10,13,-11
1684,10,43,-261,11,11,-12
1685,10,43,-261,10,10,-12
1686,10,44,-261,13,13,-14
1687,11,44,-261,23,14,-12
1688,11,42,-261,13,17,-13
1689,11,43,-261,17,16,-13
1690,11,43,-260,14,12,-14
1691,12,42,-261,20,9,-14
1692,11,42,-260,16,11,-17
1693,11,42,-261,22,14,-19
1694,11,42,-260,16,14,-21
1695,11,42,-261,16,16,-20
1696,11,41,-261,18,18,-23
1697,12,41,-260,14,16,-23
1698,12,42,-261,12,14,-25
1699,11,43,-260,19,14,-21
1700,12,43,-260,6,12,-21
1701,12,42,-261,2,13,-22
1702,12,43,-260,12,11,-20
1703,12,42,-261,3,13,-17
1704,12,45,-261,5,13,-22
1705,12,42,-261,-1,17,-18
1706,12,44,-261,4,10,-21
1707,13,44,-261,1,12,-22
1708,12,44,-261,7,14,-19
1709,13,44,-261,0,12,-18
1710,12,45,-260,11,13,-19
1711,13,43,-260,11,13,-26
1712,13,46,-260,-9,9,-24
1713,12,44,-260,7,8,-17
1714,13,45,-261,4,12,-18
1715,13,46,-260,22,5,-20
1716,12,44,-261,11,6,-16
1717,12,45,-261,18,9,-15
1718,12,46,-260,21,7,-18
1719,13,44,-261,23,6,-15
1720,12,44,-261,14,10,-14
1721,12,44,-261,16,7,-15
1722,13,44,-261,16,8,-15
1723,12,45,-261,17,11,-14
1724,12,44,-260,18,10,-15
1725,12,45,-260,17,8,-15
1726,12,44,-260,18,6,-14
1727,12,43,-261,12,4,-9
1728,12,45,-261,15,6,-15
1729,12,43,-262,21,10,-20
1730,13,43,-262,16,11,-19
1731,11,44,-261,19,9,-18
1732,12,44,-261,22,11,-18
1733,12,43,-262,22,12,-20
1734,12,42,-262,23,10,-19
1735,11,42,-262,22,11,-18
1736,12,42,-262,27,9,-17
1737,12,41,-262,32,8,-16
1738,11,41,-261,29,11,-17
1739,11,41,-261,32,11,-25
1740,11,39,-263,23,11,-23
1741,11,39,-262,8,14,-18
1742,12,39,-263,14,11,-18
1743,11,39,-262,-2,12,-18
1744,10,38,-262,7,12,-13
1745,11,40,-261,6,12,-15
1746,11,39,-263,5,11,-15
1747,11,40,-262,7,12,-14
1748,11,40,-261,14,14,-12
1749,12,38,-262,7,10,-11
1750,11,39,-262,14,11,-10
1751,12,41,-261,25,5,-4
1752,12,39,-261,17,5,-5
1753,11,40,-261,25,6,-6
1754,12,39,-261,24,6,-8
1755,11,39,-262,26,4,-6
1756,11,39,-261,29,7,-8
1757,11,38,-261,36,10,-13
1758,11,38,-262,35,10,-17
1759,11,37,-262,26,13,-18
1760,11,37,-262,31,12,-18
1761,11,36,-262,29,10,-15
1762,11,36,-262,25,9,-15
1763,11,36,-262,19,10,-13
1764,11,35,-262,13,7,-11
1765,11,36,-264,11,8,-11
1766,14,35,-262,2,0,-12
1767,12,35,-262,0,2,-12
1768,12,35,-263,5,4,-11
1769,12,36,-262,6,6,-11
1770,12,36,-262,3,3,-12
1771,12,35,-262,6,6,-11
1772,12,36,-262,17,8,-10
1773,13,35,-262,8,6,-11
1774,12,36,-262,8,7,-11
1775,13,35,-262,9,8,-9
1776,12,36,-261,16,6,-10
1777,12,36,-261,13,8,-10
1778,12,36,-261,11,9,-11
1779,12,35,-261,13,8,-11
1780,12,35,-262,8,9,-10
1781,12,36,-261,8,11,-8
1782,13,35,-262,17,8,-10
1783,12,35,-262,16,9,-10
1784,12,35,-261,12,10,-9
1785,11,35,-261,18,9,-8
1786,12,35,-261,14,9,-11
1787,12,34,-262,11,9,-10
1788,12,34,-262,2,8,-9
1789,12,34,-261,2,9,-9
1790,11,35,-261,0,9,-9
1791,12,35,-262,0,8,-11
1792,12,34,-262,-8,11,-10
1793,12,35,-262,-7,8,-12
1794,12,36,-262,-12,5,-13
1795,12,37,-262,5,6,-16
1796,13,35,-262,-14,10,-14
1797,12,37,-261,8,5,-19
1798,12,36,-262,-24,11,-13
1799,12,37,-262,-19,9,-17
1800,13,38,-261,-1,4,-16
1801,12,38,-262,-8,8,-12
1802,12,38,-262,-3,8,-14
1803,12,39,-262,0,6,-15
1804,12,40,-262,4,8,-15
1805,12,39,-262,5,9,-16
1806,12,39,-262,10,7,-16
1807,11,39,-262,16,7,-14
1808,12,39,-262,9,11,-15
1809,11,40,-263,14,7,-12
1810,12,39,-262,9,6,-10
1811,11,39,-262,14,7,-6
1812,11,39,-262,16,6,-5
1813,12,39,-265,9,7,-5
1814,13,38,-263,-2,1,-4
1815,12,39,-263,11,0,-5
1816,11,38,-263,-3,2,-8
1817,11,39,-265,12,6,-6
1818,12,39,-263,-2,2,-6
1819,11,39,-263,-1,4,-5
1820,11,39,-263,3,4,-4
1821,11,41,-263,5,3,-5
1822,12,40,-263,4,4,-7
1823,11,40,-262,8,6,-6
1824,10,40,-263,6,4,-6
1825,12,39,-263,6,3,-7
1826,11,40,-262,16,9,-7
1827,11,40,-262,9,7,-8
1828,11,39,-262,12,7,-8
1829,11,40,-262,12,9,-10
1830,11,39,-262,19,8,-11
1831,11,39,-261,9,8,-12
1832,11,39,-262,17,12,-10
1833,11,40,-262,12,9,-13
1834,11,38,-263,5,10,-14
1835,11,38,-262,8,11,-12
1836,12,38,-262,10,9,-13
1837,11,38,-262,10,8,-15
1838,11,38,-263,8,10,-12
1839,12,38,-263,-3,10,-17
1840,11,38,-262,-2,14,-13
1841,12,39,-262,-3,12,-15
1842,12,40,-262,-16,10,-19
1843,12,41,-261,2,12,-16
1844,11,40,-262,-15,18,-13
1845,12,42,-261,-2,11,-18
1846,12,41,-262,-11,16,-14
1847,13,43,-261,-8,14,-17
1848,12,43,-261,3,11,-14
1849,12,43,-261,-2,16,-11
1850,12,43,-261,4,14,-15
1851,13,44,-260,15,21,-10
1852,13,44,-261,4,18,-9
1853,13,44,-261,14,21,-8
1854,13,44,-261,7,23,-9
1855,14,43,-261,10,16,-12
1856,13,44,-261,14,18,-8
1857,13,44,-261,15,20,-9
1858,13,43,-261,9,17,-11
1859,13,43,-261,9,17,-10
1860,14,43,-261,11,19,-9
1861,13,44,-260,8,15,-11
1862,13,44,-261,6,16,-9
1863,14,44,-260,10,13,-11
1864,13,44,-261,3,12,-11
1865,14,43,-261,4,15,-10
1866,15,44,-260,11,15,-10
1867,14,44,-260,11,12,-10
1868,14,44,-261,7,14,-9
1869,14,44,-261,10,14,-10
1870,14,44,-260,10,11,-11
1871,14,45,-260,12,16,-11
1872,14,45,-260,16,15,-10
1873,14,45,-260,17,13,-11
1874,14,45,-260,16,14,-11
1875,14,44,-260,19,15,-10
1876,14,45,-260,15,11,-11
1877,14,44,-260,11,13,-11
1878,13,43,-261,9,14,-12
1879,14,44,-261,17,11,-11
1880,14,44,-260,17,12,-10
1881,14,44,-261,9,12,-11
1882,13,43,-260,11,10,-11
1883,13,44,-260,17,9,-10
1884,13,44,-260,19,10,-10
1885,14,43,-261,11,7,-11
1886,13,44,-260,23,6,-9
1887,13,42,-261,23,5,-9
1888,13,43,-261,19,3,-11
1889,14,42,-261,25,0,-12
1890,13,42,-261,17,0,-12
1891,13,42,-261,30,-7,-13
1892,13,42,-261,21,-13,-16
1893,12,39,-262,40,-19,-19
1894,12,40,-262,41,-37,-26
1895,11,39,-262,24,-52,-37
1896,9,38,-262,40,-61,-41
1897,7,39,-261,44,-57,-41
1898,6,36,-261,27,-43,-39
1899,4,38,-262,44,-49,-36
1900,3,36,-262,41,-54,-43
1901,2,37,-260,66,-56,-49
1902,0,33,-261,35,-34,-46
1903,-1,34,-261,26,-14,-27
1904,-1,33,-260,-28,0,-24
1905,-1,36,-260,-9,9,-20
1906,-1,37,-260,-28,26,-7
1907,0,38,-260,-18,25,0
1908,0,39,-261,-19,30,1
1909,0,39,-261,-1,28,5
1910,0,39,-261,-4,26,0
1911,1,40,-261,-9,26,-2
1912,1,40,-262,0,27,0
1913,1,41,-261,0,19,-5
1914,1,40,-261,-6,22,-5
1915,1,41,-261,-2,22,-5
1916,1,41,-261,-15,21,-8
1917,1,43,-260,-9,25,-6
1918,2,42,-261,-6,22,-10
1919,1,44,-261,-9,19,-12
1920,2,44,-261,-3,23,-11
1921,2,44,-261,-7,24,-8
1922,3,45,-261,-18,15,-15
1923,2,47,-261,-2,21,-12
1924,3,46,-261,-18,22,-13
1925,3,48,-261,-4,15,-14
1926,3,47,-260,0,16,-14
1927,4,47,-261,-12,21,-12
1928,4,48,-260,-1,13,-15
1929,4,47,-261,0,18,-12
1930,4,50,-260,-7,20,-13
1931,5,49,-260,-2,13,-15
1932,4,49,-261,2,17,-12
1933,4,51,-260,-7,19,-13
1934,4,50,-260,0,15,-13
1935,5,50,-260,-1,10,-12
1936,4,52,-259,17,10,-8
1937,6,50,-260,0,9,-13
1938,5,51,-259,19,11,-13
1939,4,51,-260,0,15,-9
1940,5,50,-260,14,10,-12
1941,5,51,-260,8,12,-11
1942,5,50,-260,20,17,-8
1943,6,53,-259,21,7,-9
1944,6,51,-260,23,9,-10
1945,5,51,-261,22,14,-5
1946,6,51,-259,26,10,-8
1947,6,51,-259,21,16,-7
1948,6,50,-259,20,16,-2
1949,7,49,-260,19,13,-6
1950,7,50,-260,15,15,-8
1951,6,50,-260,22,16,-5
1952,7,50,-260,23,13,-7
1953,6,50,-260,31,13,-8
1954,6,50,-261,17,15,-8
1955,7,49,-261,26,12,-10
1956,6,50,-260,24,14,-10
1957,7,49,-261,24,17,-9
1958,7,48,-261,29,14,-11
1959,6,49,-261,30,14,-16
1960,6,47,-262,30,28,-14
1961,8,48,-261,42,26,-12
1962,8,46,-261,28,12,-15
1963,7,46,-261,28,14,-15
1964,9,45,-262,33,13,-13
1965,8,44,-262,26,7,-15
1966,8,45,-261,25,10,-11
1967,8,44,-261,27,10,-12
1968,8,43,-261,21,8,-13
1969,7,43,-260,24,9,-11
1970,8,43,-261,21,7,-11
1971,7,43,-261,20,5,-11
1972,8,42,-261,22,9,-9
1973,7,42,-260,20,6,-11
1974,8,42,-261,18,6,-11
1975,8,41,-262,19,6,-10
1976,8,41,-261,21,8,-11
1977,7,41,-261,21,6,-11
1978,8,40,-262,18,9,-10
1979,8,40,-262,19,8,-10
1980,7,41,-261,20,8,-11
1981,8,40,-262,23,11,-10
1982,8,40,-262,22,11,-11
1983,8,39,-262,22,10,-11
1984,8,39,-262,20,13,-10
1985,8,39,-262,18,11,-10
1986,8,39,-262,19,10,-10
1987,8,38,-262,22,14,-10
1988,9,38,-262,17,11,-11
1989,9,38,-262,17,10,-10
1990,8,39,-262,16,12,-10
1991,9,38,-261,14,12,-11
1992,9,38,-262,14,9,-11
1993,9,37,-262,13,11,-11
1994,9,38,-261,16,12,-11
1995,9,37,-262,18,10,-12
1996,9,37,-263,19,13,-11
1997,9,36,-262,17,13,-12
1998,9,36,-262,19,10,-12
1999,9,36,-262,17,12,-12
2000,9,36,-262,15,12,-12
2001,9,36,-262,16,10,-11
2002,8,36,-262,14,12,-11
2003,9,36,-262,13,14,-11
2004,9,36,-262,17,10,-11
2005,9,36,-262,18,10,-9
2006,9,35,-263,8,13,-10
2007,9,36,-262,15,8,-10
2008,9,35,-263,16,11,-9
2009,9,35,-262,13,11,-9
2010,9,35,-262,13,8,-11
2011,9,35,-262,13,8,-10
2012,9,35,-263,10,10,-12
2013,8,35,-262,11,7,-11
2014,9,35,-262,12,9,-11
2015,9,34,-262,10,9,-11
2016,9,35,-262,7,7,-11
2017,8,35,-262,13,8,-11
2018,8,35,-262,10,10,-11
2019,8,35,-262,13,9,-12
2020,9,35,-261,18,10,-11
2021,8,34,-262,15,11,-12
2022,9,35,-262,14,9,-12
2023,8,34,-262,15,12,-12
2024,9,34,-263,17,11,-13
2025,9,34,-262,14,8,-12
2026,9,34,-263,15,11,-11
2027,8,34,-262,12,12,-13
2028,9,34,-263,11,9,-12
2029,9,34,-262,12,11,-11
2030,8,34,-262,8,11,-11
2031,9,34,-261,10,9,-11
2032,9,34,-262,10,10,-11
2033,9,34,-262,8,12,-11
2034,9,33,-263,4,9,-11
2035,9,34,-261,5,9,-10
2036,8,34,-262,5,11,-10
2037,8,33,-262,-1,5,-10
2038,9,33,-262,5,8,-8
2039,9,34,-262,4,11,-10
2040,10,33,-263,6,10,-8
2041,9,34,-261,6,8,-10
2042,9,34,-261,12,11,-9
2043,9,34,-262,7,11,-13
2044,9,34,-261,13,17,-10
2045,9,34,-262,11,10,-12
2046,9,34,-261,5,10,-12
2047,9,34,-261,10,12,-10
2048,9,34,-262,12,17,-10
2049,9,34,-262,2,11,-12
2050,9,34,-262,-2,7,-14
2051,8,33,-263,0,10,-11
2052,9,35,-262,10,15,-11
2053,10,35,-262,3,8,-17
2054,8,37,-262,0,11,-11
2055,9,36,-262,-7,12,-18
2056,8,36,-263,2,6,-15
2057,8,36,-262,-8,12,-16
2058,8,38,-261,2,10,-14
2059,8,37,-262,-7,9,-13
2060,8,37,-262,-8,6,-14
2061,7,40,-261,0,12,-13
2062,8,38,-262,-9,4,-13
2063,7,38,-262,-1,11,-11
2064,7,39,-261,2,12,-12
2065,7,39,-261,3,10,-12
2066,7,39,-262,4,11,-11
2067,8,39,-262,6,12,-12
2068,7,39,-262,10,12,-11
2069,7,39,-261,5,14,-11
2070,8,38,-263,7,12,-13
2071,8,37,-263,2,13,-19
2072,8,38,-263,-7,20,-23
2073,8,39,-262,0,17,-21
2074,9,38,-263,-12,16,-24
2075,9,38,-262,-17,18,-24
2076,8,39,-262,-8,15,-20
2077,9,39,-262,-7,9,-20
2078,9,40,-262,-4,14,-21
2079,9,40,-261,-4,16,-20
2080,9,41,-262,-3,10,-20
2081,9,41,-262,-3,12,-20
2082,9,42,-261,-1,17,-19
2083,10,42,-261,-6,13,-18
2084,8,41,-262,-1,12,-18
2085,9,42,-261,1,16,-16
2086,9,41,-262,-19,5,-12
2087,9,42,-262,7,4,4
2088,9,42,-262,4,10,-9
2089,9,44,-261,8,7,-10
2090,8,41,-262,2,17,-10
2091,8,42,-261,-7,20,-21
2092,8,45,-261,0,10,-16
2093,9,43,-262,8,18,-14
2094,9,42,-261,0,19,-21
2095,9,44,-262,-6,16,-27
2096,9,44,-262,7,16,-20
2097,10,44,-262,-1,18,-21
2098,9,46,-261,-1,13,-22
2099,8,46,-261,2,13,-22
2100,9,45,-261,-1,15,-20
2101,9,45,-261,-5,12,-20
2102,8,46,-261,-18,12,-13
2103,8,47,-260,25,13,1
2104,9,45,-261,-15,5,-12
2105,7,48,-260,8,11,-10
2106,8,48,-261,13,16,-9
2107,8,46,-263,13,5,-7
2108,8,46,-261,-1,11,-12
2109,8,47,-261,0,11,-13
2110,8,46,-261,5,8,-12
2111,7,49,-263,6,16,-9
2112,8,47,-263,2,11,-10
2113,8,49,-262,2,10,-15
2114,8,48,-261,-1,9,-14
2115,7,49,-262,-4,8,-12
2116,8,48,-263,4,10,-11
2117,8,49,-261,2,14,-10
2118,8,47,-262,-10,10,-10
2119,9,46,-262,0,11,-12
2120,9,48,-262,1,9,-12
2121,8,49,-262,7,10,-13
2122,9,48,-262,5,13,-12
2123,8,49,-261,11,7,-15
2124,9,48,-262,8,18,-9
2125,9,50,-261,11,8,-11
2126,9,50,-261,9,12,-10
2127,9,49,-261,8,13,-11
2128,9,49,-261,9,12,-10
2129,9,50,-260,7,9,-12
2130,8,50,-261,3,11,-12
2131,9,51,-261,9,13,-10
2132,9,51,-260,4,9,-12
2133,9,50,-261,-3,9,-14
2134,11,49,-260,1,2,-13
2135,11,52,-258,16,10,-14
2136,10,50,-259,-4,9,-14
2137,10,52,-260,15,14,-12
2138,11,52,-258,5,-2,-19
2139,13,50,-259,-5,-9,-18
2140,11,51,-258,24,2,-13
2141,10,53,-259,19,4,-14
2142,12,52,-259,10,2,-14
2143,10,50,-261,12,8,-15
2144,11,51,-260,15,1,-16
2145,11,50,-259,15,6,-14
2146,11,50,-260,5,12,-14
2147,11,49,-261,4,15,-14
2148,11,51,-259,14,10,-14
2149,12,49,-260,9,9,-13
2150,11,45,-262,-5,11,-14
2151,11,51,-260,17,8,-13
2152,12,45,-262,-10,9,-19
2153,11,48,-261,-1,1,-16
2154,11,52,-259,19,7,-16
2155,10,48,-261,-6,11,-14
2156,10,48,-261,9,12,-11
2157,12,50,-259,8,0,-17
2158,12,48,-260,-1,-5,-16
2159,10,49,-261,12,7,-12
2160,10,49,-261,0,12,-12
2161,11,50,-261,16,10,-8
2162,11,49,-261,5,1,-13
2163,10,49,-261,2,10,-14
2164,11,51,-260,21,9,-11
2165,10,49,-261,3,10,-13
2166,10,47,-262,8,9,-12
2167,11,51,-261,10,12,-15
2168,12,48,-260,6,-2,-15
2169,10,49,-260,16,12,-12
2170,10,48,-261,7,12,-12
2171,11,47,-261,1,8,-15
2172,11,48,-261,9,6,-16
2173,10,48,-262,16,13,-13
2174,8,49,-262,12,13,-12
2175,9,48,-262,12,12,-14
2176,10,48,-261,13,13,-13
2177,9,48,-261,12,11,-12
2178,9,48,-262,17,10,-14
2179,8,47,-263,7,12,-11
2180,11,47,-262,13,9,-13
2181,10,46,-262,4,12,-13
2182,10,45,-263,8,13,-13
2183,10,48,-262,19,11,-12
2184,10,48,-262,10,12,-14
2185,10,46,-262,8,11,-14
2186,10,47,-262,13,10,-13
2187,10,47,-262,11,14,-15
2188,10,46,-262,10,16,-17
2189,11,47,-262,10,10,-17
2190,11,46,-262,14,11,-16
2191,10,46,-262,13,12,-15
2192,10,45,-262,3,14,-14
2193,11,46,-261,10,9,-18
2194,11,46,-261,2,11,-18
2195,11,46,-261,10,10,-16
2196,11,45,-261,-8,13,-17
2197,11,46,-261,11,10,-18
2198,11,45,-261,-2,14,-14
2199,12,46,-261,3,11,-17
2200,11,48,-260,7,12,-16
2201,11,46,-260,10,15,-14
2202,12,47,-260,1,16,-13
2203,12,46,-260,8,13,-13
2204,12,47,-260,14,8,-14
2205,12,48,-261,18,10,-12
2206,12,47,-260,9,14,-12
2207,11,48,-261,15,13,-10
2208,12,47,-261,11,13,-12
2209,12,47,-260,11,14,-16
2210,12,48,-261,22,13,-9
2211,12,47,-261,18,9,-10
2212,12,48,-261,12,12,-10
2213,12,47,-260,17,12,-11
2214,12,48,-260,18,10,-12
2215,12,47,-260,15,14,-12
2216,12,49,-259,14,12,-12
2217,12,48,-260,6,10,-17
2218,11,49,-260,16,14,-13
2219,12,47,-260,11,15,-10
2220,13,49,-260,11,8,-15
2221,12,48,-260,16,13,-14
2222,12,49,-260,7,11,-14
2223,12,48,-260,7,11,-15
2224,12,48,-260,15,13,-12
2225,13,48,-260,3,13,-13
2226,12,48,-260,13,14,-13
2227,12,49,-260,15,9,-11
2228,12,48,-259,10,8,-14
2229,11,47,-260,13,6,-13
2230,12,48,-259,13,8,-11
2231,12,48,-260,15,3,-11
2232,11,48,-260,9,1,-13
2233,11,49,-259,16,8,-14
2234,11,47,-260,5,8,-12
2235,12,48,-260,5,2,-10
2236,11,48,-259,0,8,-12
2237,11,48,-260,3,7,-10
2238,11,48,-259,4,6,-9
2239,11,49,-260,8,5,-11
2240,11,48,-259,-2,7,-12
2241,11,49,-260,8,7,-14
2242,11,49,-260,6,8,-16
2243,11,48,-260,14,9,-15
2244,11,49,-259,9,12,-15
2245,11,49,-260,3,10,-16
2246,11,48,-260,-1,11,-18
2247,11,49,-260,5,10,-17
2248,11,49,-260,6,10,-16
2249,11,49,-260,-6,12,-13
2250,11,50,-260,1,4,-13
2251,11,50,-260,7,5,-13
2252,11,50,-260,-2,7,-12
2253,11,51,-260,-2,5,-14
2254,11,51,-260,3,5,-12
2255,11,51,-260,-1,4,-15
2256,11,51,-260,2,10,-12
2257,11,51,-260,-5,8,-14
2258,11,52,-260,-4,6,-12
2259,1,44,-276,29,37,0
2260,9,50,-263,3,23,-9
2261,9,50,-264,11,12,-9
2262,8,49,-265,2,17,-7
2263,8,49,-265,6,18,-6
2264,9,50,-263,6,16,-7
2265,9,50,-263,3,13,-8
2266,8,50,-263,4,15,-10
2267,9,51,-263,8,18,-10
2268,8,51,-262,7,16,-8
2269,9,51,-263,12,12,-9
2270,9,51,-262,10,11,-10
2271,9,51,-262,14,10,-13
2272,9,51,-262,7,15,-15
2273,9,51,-262,5,13,-11
2274,9,51,-262,-2,12,-12
2275,9,51,-261,4,13,-10
2276,9,52,-261,12,13,-14
2277,9,51,-261,11,18,-14
2278,9,51,-261,3,13,-14
2279,9,52,-261,6,9,-17
2280,9,52,-261,11,10,-20
2281,9,51,-260,1,18,-20
2282,9,51,-261,4,18,-17
2283,9,53,-260,23,12,-15
2284,9,52,-261,13,12,-18
2285,9,51,-260,12,15,-16
2286,9,52,-259,19,17,-14
2287,9,53,-260,7,18,-16
2288,9,51,-260,9,17,-22
2289,10,52,-260,11,14,-18
2290,10,52,-259,13,13,-16
2291,10,53,-259,7,19,-18
2292,10,52,-259,13,15,-18
2293,11,51,-260,11,14,-15
2294,10,52,-259,14,11,-12
2295,11,52,-259,7,12,-14
2296,10,53,-259,10,16,-16
2297,10,53,-259,12,16,-16
2298,11,53,-259,5,12,-13
2299,11,53,-258,4,9,-12
2300,11,53,-259,5,11,-14
2301,11,53,-259,9,15,-15
2302,11,53,-259,13,15,-14
2303,11,53,-259,8,13,-11
2304,11,53,-259,4,10,-10
2305,11,55,-258,16,12,-6
2306,11,53,-259,7,14,-14
2307,11,54,-259,24,17,-15
2308,11,54,-259,13,9,-14
2309,11,54,-258,20,9,-11
2310,11,53,-260,19,10,-14
2311,10,54,-259,24,15,-17
2312,11,53,-259,24,14,-18
2313,10,52,-259,28,11,-11
2314,10,53,-260,24,12,-9
2315,11,51,-260,32,11,-11
2316,10,52,-259,26,14,-16
2317,11,51,-260,26,15,-15
2318,10,52,-260,22,10,-11
2319,11,51,-260,24,9,-10
2320,10,51,-260,17,10,-12
2321,11,51,-261,24,12,-15
2322,10,51,-260,22,12,-14
2323,10,50,-261,20,9,-12
2324,10,50,-260,20,9,-10
2325,11,50,-261,14,9,-12
2326,10,49,-261,19,14,-15
2327,11,48,-261,20,12,-14
2328,10,49,-260,11,9,-12
2329,11,49,-261,18,7,-6
2330,11,48,-261,16,9,-8
2331,11,49,-261,17,10,-14
2332,11,48,-260,15,11,-12
2333,11,48,-261,13,6,-10
2334,11,49,-260,19,8,-11
2335,11,47,-261,5,11,-10
2336,11,48,-261,0,10,-15
2337,11,48,-261,8,13,-14
2338,11,48,-261,9,11,-10
2339,12,48,-260,-1,6,-9
2340,11,48,-260,7,7,-14
2341,11,48,-261,-3,15,-12
2342,11,48,-261,-5,14,-14
2343,11,49,-260,5,7,-12
2344,11,48,-261,2,9,-9
2345,11,49,-260,-3,12,-16
2346,11,48,-261,10,17,-16
2347,11,48,-261,-16,14,-11
2348,11,50,-260,1,8,-12
2349,10,50,-261,3,10,-11
2350,12,49,-261,1,13,-14
2351,11,50,-260,10,9,-16
2352,11,50,-260,3,3,-12
2353,11,51,-260,7,-1,-13
2354,11,50,-261,3,3,-11
2355,11,51,-260,8,5,-15
2356,10,50,-260,7,7,-14
2357,10,51,-260,4,5,-11
2358,11,51,-261,3,2,-10
2359,10,51,-260,1,1,-10
2360,12,56,-268,1,-3,-25
2361,16,51,-263,-8,-3,-18
2362,13,51,-262,-19,-1,-19
2363,13,53,-262,-15,0,-20
2364,12,54,-262,-3,4,-18
2365,13,53,-262,-18,3,-15
2366,12,53,-262,1,0,-16
2367,11,55,-261,-6,3,-15
2368,12,55,-261,-10,4,-20
2369,10,55,-261,-13,10,-20
2370,11,55,-261,3,6,-14
2371,11,57,-260,-2,3,-13
2372,10,56,-260,0,1,-17
2373,10,56,-260,15,6,-15
2374,11,57,-260,14,7,-14
2375,10,56,-259,12,3,-14
2376,10,56,-260,12,2,-10
2377,11,57,-259,15,4,-9
2378,9,56,-259,17,6,-12
2379,10,57,-259,12,6,-9
2380,10,56,-260,17,4,1
2381,10,56,-259,22,2,0
2382,10,55,-260,18,7,-6
2383,10,56,-259,23,8,-6
2384,10,56,-259,25,5,-2
2385,10,55,-259,31,2,2
2386,10,53,-260,18,4,-4
2387,9,55,-260,32,8,-6
2388,10,54,-259,24,7,-5
2389,10,53,-260,24,3,-3
2390,10,53,-260,29,2,0
2391,10,53,-260,28,6,-7
2392,10,53,-260,29,9,-8
2393,10,51,-260,27,7,-6
2394,10,52,-261,30,5,-4
2395,10,51,-261,24,4,-5
2396,10,51,-261,24,8,-10
2397,10,50,-261,30,10,-8
2398,10,50,-261,22,7,-6
2399,10,49,-260,25,6,-2
2400,10,49,-262,24,7,0
2401,9,48,-261,13,10,-7
2402,10,48,-261,17,9,-5
2403,10,48,-261,18,7,0
2404,10,48,-261,19,2,0
2405,9,49,-260,0,4,-5
2406,10,47,-260,12,10,-7
2407,9,48,-260,14,12,-3
2408,10,47,-260,14,7,-4
2409,9,48,-260,15,8,-11
2410,10,46,-260,-1,10,-35
2411,10,49,-260,-11,13,-29
2412,10,48,-260,19,10,-19
2413,9,50,-260,9,12,-21
2414,10,47,-260,-5,9,-24
2415,10,50,-260,4,7,-20
2416,9,49,-260,11,17,-20
2417,9,49,-260,3,16,-19
2418,10,49,-260,-9,12,-21
2419,10,49,-260,2,10,-20
2420,10,49,-261,0,15,-21
2421,10,49,-260,-6,16,-20
2422,10,50,-260,2,13,-17
2423,10,50,-260,-5,12,-17
2424,10,52,-260,1,14,-21
2425,10,51,-260,-1,14,-21
2426,10,52,-259,16,10,-11
2427,10,51,-260,6,7,-11
2428,10,52,-259,18,4,-13
2429,9,52,-259,5,12,-16
2430,10,51,-260,11,10,-14
2431,10,52,-259,8,10,-15
2432,9,51,-260,-2,9,-11
2433,9,54,-259,14,9,-14
2434,10,52,-259,25,7,-16
2435,10,51,-260,18,8,-12
2436,10,52,-260,20,8,-4
2437,10,50,-260,28,7,-2
2438,10,51,-260,17,11,-7
2439,11,50,-260,21,11,-11
2440,11,50,-260,27,8,-4
2441,10,50,-261,20,5,-5
2442,11,49,-260,24,10,-11
2443,11,48,-261,19,12,-15
2444,10,49,-260,19,7,-9
2445,11,48,-261,6,6,-6
2446,10,48,-260,10,9,-13
2447,10,49,-260,7,16,-13
2448,11,48,-260,9,12,-9
2449,11,48,-260,7,8,-7
2450,10,49,-260,11,8,-12
2451,10,49,-260,6,16,-11
2452,11,48,-261,7,13,-16
2453,11,49,-261,11,9,-12
2454,11,48,-261,6,9,-10
2455,11,49,-259,7,11,-13
2456,11,49,-260,11,14,-18
2457,11,48,-260,4,13,-11
2458,11,48,-260,0,7,-12
2459,12,50,-260,5,7,-14
2460,11,49,-260,5,14,-13
2461,11,50,-260,8,10,-14
2462,12,49,-260,4,6,-12
2463,11,49,-261,13,6,-6
2464,11,50,-259,12,10,-13
2465,11,49,-260,23,12,-14
2466,11,48,-260,16,6,-10
2467,11,49,-260,10,5,-9
2468,11,49,-259,9,9,-13
2469,11,48,-260,19,15,-11
2470,11,49,-260,-1,11,-17
2471,11,49,-260,5,10,-12
2472,12,48,-260,7,9,-11
2473,12,50,-260,5,11,-15
2474,12,48,-260,8,15,-18
2475,12,47,-260,-5,14,-11
2476,11,49,-260,-2,7,-12
2477,12,49,-260,11,9,-14
2478,12,48,-260,0,16,-15
2479,12,48,-260,16,12,-16
2480,12,47,-260,12,16,-27
2481,12,49,-260,0,21,-23
2482,13,48,-260,16,21,-25
2483,13,47,-260,2,20,-32
2484,13,49,-260,8,16,-22
2485,13,48,-260,3,15,-17
2486,14,49,-259,2,12,-23
2487,14,48,-261,0,13,-21
2488,13,49,-260,15,11,-16
2489,14,48,-260,9,8,-14
2490,14,48,-260,8,9,-16
2491,14,48,-260,6,11,-18
2492,14,47,-261,4,19,-11
2493,14,48,-260,17,9,-13
2494,14,48,-260,2,12,-8
2495,14,49,-260,35,8,5
2496,15,48,-260,11,9,-2
2497,15,48,-260,16,11,-7
2498,14,47,-261,13,5,-9
2499,15,47,-260,8,8,-5
2500,14,47,-259,17,4,-1
2501,14,46,-261,9,8,-6
2502,13,47,-260,12,12,-6
2503,14,45,-260,2,9,-12
2504,13,47,-260,3,9,-8
2505,14,47,-260,9,6,-7
2506,14,46,-260,1,10,-11
2507,13,48,-260,13,11,-14
2508,14,46,-260,-5,9,-12
2509,14,48,-260,0,5,-10
2510,13,48,-260,7,10,-14
2511,13,47,-260,-1,18,-12
2512,15,48,-260,9,6,-13
2513,13,47,-260,-5,-1,-9
2514,13,48,-260,-1,4,-6
2515,13,48,-260,-2,6,-11
2516,13,48,-260,2,3,-11
2517,12,48,-260,0,1,-10
2518,12,48,-260,3,3,-9
2519,12,48,-260,2,4,-10
2520,11,49,-259,4,5,-9
2521,12,52,-259,9,2,5
2522,12,47,-260,25,3,2
2523,12,51,-259,15,3,-7
2524,11,49,-259,19,2,-5
2525,11,49,-259,6,4,-2
2526,12,49,-259,12,3,-6
2527,12,49,-259,5,6,-12
2528,12,49,-259,19,5,-20
2529,12,48,-260,-10,8,-23
2530,11,49,-259,16,10,-24
2531,12,51,-258,8,13,-25
2532,12,48,-260,18,13,-23
2533,12,50,-259,4,8,-25
2534,11,50,-259,9,15,-26
2535,12,50,-259,7,15,-23
2536,12,49,-260,3,9,-18
2537,11,51,-259,8,10,-20
2538,11,50,-260,8,13,-23
2539,11,50,-259,5,12,-18
2540,12,50,-259,7,7,-14
2541,11,51,-259,10,9,-18
2542,11,50,-259,6,14,-21
2543,11,50,-260,6,13,-19
2544,11,50,-259,9,12,-12
2545,12,50,-260,11,7,-15
2546,11,50,-259,12,15,-19
2547,12,50,-259,10,13,-15
2548,12,49,-260,14,10,-10
2549,12,49,-260,14,10,-10
2550,12,49,-260,8,12,-13
2551,11,50,-259,22,14,-9
2552,12,50,-259,25,8,-7
2553,12,49,-260,19,5,-8
2554,12,50,-258,34,13,-15
2555,11,49,-259,29,18,-17
2556,12,48,-259,29,14,-18
2557,11,48,-259,31,15,-18
2558,12,48,-259,25,16,-19
2559,12,46,-259,30,17,-15
2560,12,46,-260,28,14,-10
2561,12,46,-259,25,16,-16
2562,12,46,-260,30,15,-14
2563,13,44,-260,25,13,-6
2564,12,44,-261,37,12,0
2565,12,44,-260,26,15,0
2566,12,43,-261,35,11,0
2567,12,44,-261,18,9,-2
2568,12,43,-261,16,14,-5
2569,13,43,-260,30,15,-3
2570,12,43,-261,21,12,3
2571,13,41,-262,26,4,2
2572,12,42,-261,25,10,-2
2573,14,44,-263,23,17,-3
2574,15,40,-263,0,11,-6
2575,14,43,-262,2,3,-4
2576,14,41,-263,1,11,-7
2577,14,42,-263,1,13,-8
2578,14,42,-261,-9,5,-3
2579,13,43,-261,-11,6,-6
2580,13,44,-261,2,9,-9
2581,13,43,-261,-9,13,-8
2582,13,44,-260,-5,2,-6
2583,12,45,-261,-10,9,-8
2584,13,44,-262,-6,10,-11
2585,13,45,-261,-1,10,-9
2586,12,45,-261,-5,9,-5
2587,12,46,-261,2,6,-9
2588,12,46,-261,-4,10,-18
2589,12,47,-261,-24,11,-17
2590,11,47,-261,-4,4,-11
2591,12,45,-262,-25,-2,-24
2592,11,48,-261,-15,0,-25
2593,10,47,-261,-6,6,-19
2594,10,50,-260,-11,0,-16
2595,10,47,-261,-15,2,-19
2596,10,49,-261,-16,5,-22
2597,9,50,-260,-4,10,-17
2598,10,50,-260,-4,6,-15
2599,9,49,-260,-4,6,-14
2600,9,50,-260,-3,12,-17
2601,10,50,-261,1,14,-16
2602,9,50,-260,2,9,-14
2603,9,51,-259,7,7,-7
2604,10,50,-260,16,10,-8
2605,9,50,-260,1,12,-14
2606,9,49,-260,16,11,-10
2607,9,50,-260,16,7,-5
2608,10,50,-260,14,7,-9
2609,8,51,-260,20,13,-14
2610,9,50,-260,14,11,-13
2611,10,49,-260,18,8,-9
2612,10,49,-260,16,5,-10
2613,10,49,-260,21,10,-14
2614,10,49,-260,22,12,-15
2615,9,49,-261,23,8,-13
2616,10,48,-261,21,9,-11
2617,10,48,-260,22,8,-14
2618,10,48,-261,26,12,-16
2619,10,47,-261,29,11,-17
2620,11,46,-261,36,9,-13
2621,11,46,-261,25,6,-16
2622,11,46,-261,43,14,-25
2623,12,45,-261,37,15,-22
2624,11,45,-261,44,13,-23
2625,11,43,-261,33,11,-22
2626,12,44,-261,37,13,-24
2627,11,43,-261,32,14,-25
2628,11,42,-261,41,14,-20
2629,12,41,-262,37,13,-11
2630,12,41,-261,45,12,-6
2631,11,40,-261,24,16,-11
2632,12,40,-262,38,14,-9
2633,13,40,-261,33,10,-3
2634,12,40,-261,33,11,-3
2635,11,39,-261,31,18,-9
2636,12,39,-261,35,17,-5
2637,13,38,-261,23,10,-3
2638,18,39,-264,31,-3,-7
2639,14,38,-262,26,7,-14
2640,14,37,-262,31,10,-16
2641,14,36,-262,12,11,-9
2642,15,36,-262,9,3,-10
2643,14,37,-262,10,3,-15
2644,14,36,-262,12,8,-12
2645,15,36,-262,4,7,-14
2646,15,35,-262,3,3,-11
2647,14,39,-261,-3,4,-12
2648,14,37,-262,6,6,-14
2649,15,37,-262,9,6,-14
2650,14,37,-261,0,6,-8
2651,14,38,-261,17,3,-9
2652,14,37,-262,28,5,-11
2653,14,35,-262,22,9,-10
2654,13,37,-262,17,4,-9
2655,13,36,-262,3,8,-6
2656,13,37,-261,9,6,-13
2657,13,36,-262,12,11,-12
2658,13,36,-262,4,7,-12
2659,13,37,-262,9,6,-5
2660,13,37,-261,10,6,-12
2661,14,36,-262,12,10,-13
2662,14,35,-263,8,9,-10
2663,13,36,-262,7,4,-6
2664,13,36,-261,11,3,-5
2665,13,36,-262,10,7,-9
2666,13,35,-262,2,10,-9
2667,13,36,-261,3,4,-7
2668,12,36,-261,3,3,-4
2669,12,37,-260,0,4,-7
2670,12,36,-262,2,9,-12
2671,12,37,-261,4,8,-6
2672,12,38,-261,6,4,-4
2673,12,37,-262,4,4,-7
2674,12,37,-262,4,12,-9
2675,12,38,-260,15,9,-11
2676,12,37,-262,19,8,-10
2677,12,37,-262,22,9,-5
2678,12,36,-262,6,8,-10
2679,12,37,-262,13,10,-13
2680,12,37,-262,8,10,-10
2681,12,36,-263,8,8,-6
2682,12,36,-262,4,4,-10
2683,12,36,-263,9,11,-13
2684,13,36,-262,9,11,-11
2685,12,36,-262,8,8,-8
2686,12,36,-262,2,5,-7
2687,12,37,-261,6,9,-12
2688,12,36,-262,6,13,-13
2689,12,36,-262,7,8,-11
2690,12,36,-262,2,7,-8
2691,12,37,-263,5,9,-9
2692,12,37,-261,9,8,-13
2693,13,37,-262,-1,14,-12
2694,12,37,-262,5,8,-11
2695,12,37,-262,2,9,-8
2696,11,38,-261,5,9,-14
2697,12,38,-261,6,14,-11
2698,11,38,-261,12,7,-10
2699,10,38,-261,10,10,-13
2700,11,38,-261,24,13,-11
2701,11,37,-262,10,12,-11
2702,11,38,-261,17,10,-11
2703,11,37,-261,7,11,-12
2704,11,38,-261,14,11,-11
2705,11,37,-261,9,10,-11
2706,11,37,-261,11,10,-10
2707,11,38,-260,12,11,-10
2708,11,37,-262,6,9,-10
2709,11,37,-262,14,10,-12
2710,11,38,-261,8,13,-13
2711,11,37,-261,7,10,-14
2712,11,38,-261,9,12,-12
2713,11,38,-261,4,11,-12
2714,11,38,-261,5,11,-12
2715,11,38,-261,8,12,-14
2716,11,38,-261,0,11,-13
2717,11,39,-261,5,11,-12
2718,11,39,-261,7,10,-12
2719,11,38,-262,8,9,-14
2720,10,38,-261,-1,16,-10
2721,11,39,-262,8,10,-11
2722,11,38,-261,1,13,-12
2723,12,39,-262,5,11,-11
2724,11,39,-261,1,12,-10
2725,11,39,-262,0,11,-11
2726,11,38,-262,8,17,-9
2727,11,41,-261,6,12,-12
2728,11,39,-261,8,11,-11
2729,12,39,-262,5,13,-11
2730,12,39,-262,7,10,-11
2731,12,40,-261,10,7,-16
2732,11,39,-261,5,11,-10
2733,11,41,-260,15,9,-10
2734,11,40,-261,7,8,-12
2735,11,39,-261,8,9,-11
2736,10,40,-260,23,9,-8
2737,11,39,-261,10,8,-11
2738,11,39,-261,15,7,-11
2739,11,39,-261,15,8,-11
2740,11,38,-261,17,10,-11
2741,11,38,-261,13,9,-11
2742,12,38,-261,13,8,-13
2743,12,38,-261,15,9,-11
2744,12,38,-260,10,10,-12
2745,12,38,-260,16,8,-12
2746,12,38,-261,14,12,-12
2747,12,38,-261,15,10,-13
2748,11,38,-261,21,11,-17
2749,10,38,-262,23,65,-15
2750,15,38,-261,33,15,-9
2751,13,37,-261,-5,-8,-19
2752,12,38,-261,6,11,-16
2753,13,38,-261,14,11,-15
2754,13,38,-261,6,7,-14
2755,12,37,-261,0,11,-14
2756,13,37,-262,5,12,-15
2757,13,38,-261,5,10,-15
2758,13,38,-261,4,11,-15
2759,12,38,-261,0,10,-14
2760,13,37,-262,2,8,-13
2761,13,38,-261,0,9,-13
2762,13,38,-262,-2,10,-13
2763,13,39,-262,-2,10,-13
2764,13,37,-262,-14,14,-18
2765,13,39,-262,-17,7,-20
2766,14,41,-260,-4,8,-18
2767,14,40,-261,-6,10,-17
2768,13,41,-261,-5,10,-17
2769,13,42,-261,-1,8,-17
2770,13,42,-261,0,9,-16
2771,13,42,-260,2,9,-16
2772,13,42,-261,3,9,-16
2773,12,42,-261,4,13,-15
2774,12,42,-261,8,14,-17
2775,13,43,-261,-11,7,-5
2776,12,41,-261,23,6,13
2777,13,41,-261,20,-3,4
2778,13,41,-261,-1,11,1
2779,12,42,-261,13,2,-2
2780,11,42,-260,21,4,-1
2781,12,40,-261,6,3,-2
2782,11,43,-260,20,5,0
2783,11,41,-260,20,2,-4
2784,11,42,-260,15,9,-10
2785,12,41,-261,25,12,-22
2786,12,41,-261,-4,11,-34
2787,11,42,-260,4,8,-28
2788,12,42,-261,16,13,-18
2789,11,41,-262,0,15,-21
2790,12,42,-260,-6,11,-27
2791,11,43,-260,-1,15,-19
2792,11,41,-261,-3,14,-19
2793,12,44,-260,0,8,-21
2794,10,44,-260,0,15,-19
2795,10,44,-261,0,11,-17
2796,10,43,-260,1,11,-18
2797,10,44,-260,-4,13,-19
2798,10,45,-260,8,12,-15
2799,10,46,-260,-1,11,-12
2800,10,45,-260,18,12,-5
2801,11,46,-260,12,9,0
2802,11,44,-261,21,8,1
2803,11,46,-261,28,8,-4
2804,11,46,-260,20,10,-5
2805,11,45,-260,18,8,-6
2806,10,45,-260,18,9,-8
2807,11,45,-260,16,8,-6
2808,11,44,-260,16,9,-8
2809,11,45,-261,15,9,-8
2810,11,44,-261,13,9,-9
2811,11,44,-261,14,9,-9
2812,11,45,-260,15,12,-7
2813,11,44,-260,16,6,-10
2814,10,44,-261,12,11,-11
2815,11,44,-261,13,8,-11
2816,11,45,-261,10,11,-10
2817,10,43,-260,3,10,-7
2818,10,45,-261,18,5,-10
2819,10,43,-261,12,11,-10
2820,10,44,-261,15,8,-11
2821,10,44,-260,16,9,-9
2822,10,43,-261,14,8,-13
2823,10,41,-263,9,11,-13
2824,10,43,-261,14,12,-13
2825,10,42,-261,15,15,-15
2826,10,42,-261,13,14,-14
2827,10,43,-262,11,18,-15
2828,11,42,-262,12,17,-14
2829,11,42,-262,10,17,-15
2830,11,42,-261,10,17,-14
2831,11,41,-262,6,17,-13
2832,11,42,-262,17,18,-13
2833,12,41,-261,16,18,-13
2834,12,41,-262,17,17,-14
2835,12,42,-261,21,18,-14
2836,12,40,-262,25,20,-14
2837,12,40,-262,19,18,-15
2838,12,41,-262,19,17,-16
2839,13,40,-262,18,18,-14
2840,13,39,-262,17,16,-15
2841,13,39,-261,17,15,-14
2842,13,39,-262,12,14,-14
2843,13,39,-262,10,14,-15
2844,13,40,-262,15,15,-14
2845,13,40,-261,11,13,-16
2846,13,39,-262,8,13,-16
2847,13,40,-261,7,11,-17
2848,13,40,-261,11,12,-16
2849,13,40,-261,7,12,-17
2850,13,39,-261,9,12,-15
2851,13,41,-260,7,10,-17
2852,13,40,-261,2,12,-18
2853,13,41,-261,5,12,-17
2854,13,40,-260,8,12,-14
2855,13,41,-259,16,16,-12
2856,13,40,-261,5,16,-19
2857,13,41,-260,10,18,-24
2858,13,42,-260,10,18,-19
2859,14,41,-260,7,17,-21
2860,13,42,-260,5,18,-28
2861,14,41,-260,-2,19,-30
2862,15,41,-261,-4,18,-28
2863,15,41,-261,-1,16,-30
2864,14,42,-261,-6,17,-29
2865,15,42,-261,-1,16,-26
2866,15,42,-261,-5,16,-24
2867,14,42,-261,-7,16,-23
2868,15,43,-261,2,14,-22
2869,14,43,-261,3,14,-21
2870,15,43,-261,1,15,-20
2871,15,43,-262,4,12,-19
2872,15,44,-262,6,14,-16
2873,15,44,-262,8,9,-14
2874,15,44,-261,10,11,-13
2875,15,45,-261,6,9,-15
2876,15,44,-262,4,10,-14
2877,14,45,-260,6,9,-13
2878,14,45,-261,8,11,-13
2879,14,46,-261,10,10,-13
2880,15,45,-261,8,10,-12
2881,14,45,-260,12,10,-12
2882,14,46,-260,12,10,-13
2883,14,45,-260,13,10,-13
2884,14,45,-260,13,10,-12
2885,14,45,-261,9,12,-13
2886,14,44,-261,10,13,-13
2887,13,45,-260,11,13,-12
2888,14,44,-261,8,12,-15
2889,14,45,-260,7,11,-13
2890,14,44,-261,2,10,-11
2891,13,45,-261,9,11,-8
2892,14,45,-261,10,10,-6
2893,14,45,-261,4,8,-5
2894,14,44,-260,6,7,-6
2895,15,45,-261,11,8,-3
2896,14,45,-261,7,6,-4
2897,15,44,-262,10,5,-5
2898,13,46,-260,15,3,-3
2899,14,44,-262,20,4,-4
2900,14,45,-261,9,1,-5
2901,14,43,-262,20,6,-5
2902,13,44,-261,20,5,-5
2903,13,45,-261,17,4,-7
2904,13,43,-261,13,7,-8
2905,13,42,-261,17,6,-7
2906,13,43,-260,11,7,-9
2907,13,43,-261,11,8,-10
2908,13,43,-260,12,7,-8
2909,12,43,-260,12,6,-10
2910,12,43,-260,19,8,-12
2911,13,42,-261,14,9,-15
2912,12,42,-261,16,16,-20
2913,13,43,-260,7,14,-20
2914,13,43,-260,19,11,-17
2915,13,43,-261,14,13,-18
2916,13,42,-261,12,13,-20
2917,13,42,-261,11,12,-19
2918,14,42,-261,12,13,-17
2919,13,42,-261,12,12,-17
2920,14,41,-262,11,13,-16
2921,13,42,-260,12,13,-17
2922,14,41,-262,5,12,-17
2923,14,42,-260,5,11,-17
2924,13,42,-260,8,8,-14
2925,14,42,-260,9,10,-15
2926,14,41,-260,3,9,-14
2927,13,43,-260,8,9,-14
2928,13,43,-260,4,9,-14
2929,13,43,-260,10,10,-14
2930,13,43,-260,9,15,-18
2931,14,42,-262,-3,17,-37
2932,14,45,-260,-4,16,-29
2933,14,44,-261,10,17,-23
2934,14,44,-261,1,16,-25
2935,15,44,-261,0,15,-26
2936,14,44,-261,1,15,-21
2937,14,45,-261,-1,12,-20
2938,14,45,-260,2,12,-17
2939,15,45,-261,2,11,-14
2940,15,44,-261,-2,9,-12
2941,14,45,-261,3,9,-7
2942,15,45,-261,10,9,-3
2943,15,45,-261,6,9,-4
2944,14,45,-261,18,6,0
2945,14,45,-261,16,8,1
2946,14,45,-261,16,7,-3
2947,14,46,-260,19,7,-4
2948,14,44,-262,15,8,-6
2949,14,44,-260,12,9,-8
2950,14,44,-261,9,7,-14
2951,14,44,-261,2,7,-14
2952,15,43,-262,14,8,-12
2953,15,43,-261,7,8,-15
2954,15,44,-261,7,7,-16
2955,14,44,-261,5,6,-19
2956,15,43,-261,-1,9,-25
2957,14,44,-261,3,6,-21
2958,14,44,-261,3,7,-19
2959,14,44,-260,5,7,-20
2960,13,44,-261,5,6,-17
2961,13,44,-260,2,6,-14
2962,13,43,-261,7,4,-3
2963,13,45,-260,42,3,4
2964,13,41,-262,2,5,-10
2965,13,42,-262,16,2,-7
2966,13,43,-262,17,3,-4
2967,13,42,-261,19,3,-6
2968,12,43,-261,16,3,-8
2969,12,42,-262,14,3,-7
2970,12,42,-261,14,5,-8
2971,12,42,-262,8,5,-8
2972,12,43,-261,12,7,-10
2973,12,42,-261,12,8,-10
2974,11,42,-261,15,9,-10
2975,12,42,-261,18,13,-9
2976,13,41,-261,13,13,-11
2977,13,41,-262,10,12,-11
2978,12,42,-260,11,12,-11
2979,13,41,-261,10,14,-12
2980,13,41,-262,7,15,-10
2981,13,42,-261,15,15,-10
2982,14,42,-261,7,17,-14
2983,14,41,-262,5,15,-16
2984,13,42,-261,-5,13,-21
2985,13,43,-261,4,17,-16
2986,14,41,-261,-5,19,-13
2987,14,40,-262,-12,7,-15
2988,15,42,-262,0,3,-19
2989,14,44,-259,0,9,-20
2990,15,42,-261,4,11,-17
2991,14,42,-261,0,11,-16
2992,14,44,-261,6,11,-18
2993,15,43,-260,5,11,-16
2994,14,43,-260,5,12,-15
2995,15,43,-261,5,8,-17
2996,15,43,-261,12,10,-16
2997,16,43,-261,16,11,-15
2998,15,42,-261,7,15,-19
2999,15,43,-261,9,12,-16
3000,16,43,-261,14,6,-16
3001,16,43,-260,16,11,-13
3002,15,43,-261,5,7,-16
3003,16,42,-261,15,10,-16
3004,17,42,-261,5,9,-15
3005,16,41,-261,0,8,-18
3006,15,43,-261,4,7,-17
3007,16,42,-261,3,9,-16
3008,15,42,-261,4,10,-14
3009,15,43,-260,-6,6,-17
3010,15,42,-261,8,5,-15
3011,15,44,-260,0,7,-14
3012,15,42,-261,-10,9,-16
3013,15,44,-261,8,8,-15
3014,15,43,-261,-2,12,-12
3015,15,45,-260,6,9,-14
3016,15,43,-261,-1,9,-19
3017,15,44,-261,-5,10,-24
3018,15,45,-260,3,8,-18
3019,15,44,-261,1,9,-18
3020,14,44,-261,-2,8,-19
3021,14,45,-260,5,9,-20
3022,14,46,-260,3,8,-18
3023,14,45,-260,2,8,-20
3024,14,46,-260,2,9,-19
3025,14,47,-259,6,12,-16
3026,14,48,-259,1,8,-19
3027,14,46,-259,2,9,-20
3028,14,46,-259,7,9,-17
3029,15,47,-260,7,7,-18
3030,14,47,-259,11,8,-18
3031,14,47,-260,13,7,-16
3032,14,47,-260,8,7,-16
3033,14,49,-259,13,10,-7
3034,15,47,-260,29,12,4
3035,14,48,-260,17,10,2
3036,14,46,-261,-2,14,-3
3037,14,45,-261,8,7,-1
3038,16,44,-261,0,0,1
3039,14,46,-261,10,3,-3
3040,15,45,-260,8,7,-4
3041,15,43,-261,15,8,-7
3042,15,45,-261,6,11,-12
3043,14,46,-261,5,11,-12
3044,14,46,-261,6,5,-12
3045,13,45,-261,11,9,-12
3046,14,46,-260,5,11,-15
3047,14,45,-261,7,13,-12
3048,13,45,-260,9,10,-13
3049,14,45,-260,0,10,-15
3050,14,45,-261,5,11,-13
3051,14,45,-261,-1,14,-12
3052,14,47,-261,21,8,-13
3053,14,44,-262,-22,11,-20
3054,12,40,-266,-125,48,-38
3055,12,44,-269,-96,122,-125
3056,20,47,-261,-55,135,-196
3057,22,46,-261,6,102,-285
3058,22,47,-260,-53,80,-335
3059,23,51,-256,-102,84,-357
3060,20,57,-258,-120,37,-329
3061,17,59,-255,-91,15,-301
3062,13,63,-255,-98,24,-264
3063,11,66,-256,-97,33,-239
3064,10,66,-256,-52,-22,-249
3065,8,73,-253,-65,51,-185
3066,12,70,-256,-56,19,-169
3067,10,75,-254,-60,19,-164
3068,10,74,-254,-39,18,-141
3069,10,77,-254,-42,29,-124
3070,9,78,-253,-32,25,-114
3071,9,79,-253,-28,25,-102
3072,9,79,-253,-17,26,-88
3073,9,80,-252,-19,28,-79
3074,10,80,-253,-16,25,-73
3075,10,81,-253,-14,26,-66
3076,10,82,-252,-16,27,-63
3077,10,83,-253,-7,24,-58
3078,10,83,-253,-13,25,-54
3079,11,83,-253,-13,25,-51
3080,10,85,-251,-12,27,-48
3081,12,85,-252,-14,31,-41
3082,11,86,-252,-12,27,-41
3083,12,87,-252,-10,27,-38
3084,14,88,-250,-15,1,-50
3085,14,87,-251,-2,18,-31
3086,13,89,-250,-6,21,-32
3087,14,89,-250,-6,23,-29
3088,15,89,-250,-3,13,-31
3089,14,90,-250,0,13,-30
3090,14,90,-250,0,16,-26
3091,14,91,-250,0,12,-26
3092,14,91,-250,1,13,-25
3093,14,92,-250,3,14,-24
3094,14,91,-250,1,15,-21
3095,14,92,-249,5,20,-17
3096,15,91,-250,3,21,-16
3097,15,92,-249,5,27,-13
3098,15,92,-249,3,24,-14
3099,16,93,-249,7,24,-14
3100,19,94,-248,20,-30,-39
3101,14,96,-249,36,29,-2
3102,14,95,-249,7,23,-10
3103,15,94,-249,21,27,-9
3104,17,95,-248,21,2,-18
3105,14,96,-249,21,14,-11
3106,14,96,-249,16,12,-14
3107,14,96,-249,18,13,-13
3108,15,95,-249,18,11,-13
3109,14,96,-248,19,11,-13
3110,14,95,-249,16,12,-13
3111,15,95,-249,17,12,-13
3112,15,95,-249,16,15,-11
3113,14,96,-248,22,29,-4
3114,15,95,-249,12,27,-6
3115,15,95,-249,15,39,1
3116,18,95,-249,10,16,-10
3117,21,93,-249,14,-73,-68
3118,19,96,-247,48,-6,-8
3119,16,95,-249,28,8,-6
3120,15,98,-249,121,31,-12
3121,12,88,-255,173,5,-25
3122,13,93,-248,24,15,68
3123,17,93,-248,38,-12,123
3124,19,88,-247,-22,-45,184
3125,20,81,-244,-6,-88,212
3126,18,76,-248,73,-147,167
3127,16,77,-254,96,-61,194
3128,17,81,-247,88,-42,184
3129,15,78,-251,79,-73,162
3130,15,74,-252,80,-44,148
3131,15,75,-252,64,-46,137
3132,13,75,-251,55,-34,136
3133,13,73,-253,64,-31,128
3134,14,72,-253,58,-29,122
3135,13,71,-254,49,-26,105
3136,12,71,-253,48,-20,101
3137,13,69,-255,44,-19,96
3138,12,69,-254,40,-14,88
3139,12,69,-254,49,-14,87
3140,12,68,-255,42,-10,81
3141,11,67,-255,47,-15,72
3142,11,68,-255,38,-18,67
3143,11,66,-255,37,-12,56
3144,11,66,-257,35,-10,55
3145,11,64,-257,37,-9,46
3146,10,65,-257,34,-5,43
3147,11,65,-256,42,-7,38
3148,11,65,-256,28,-3,36
3149,11,64,-257,38,-7,38
3150,9,63,-256,21,5,32
3151,10,63,-257,36,12,29
3152,11,63,-257,19,9,24
3153,10,61,-258,27,7,22
3154,11,61,-258,16,12,23
3155,11,61,-258,32,15,25
3156,12,60,-259,23,11,16
3157,12,61,-258,23,7,13
3158,12,58,-259,19,6,11
3159,12,60,-258,24,3,12
3160,12,59,-259,16,4,10
3161,11,58,-259,16,5,6
3162,11,60,-258,10,5,3
3163,11,59,-258,20,7,4
3164,11,58,-259,-2,3,-3
3165,10,59,-258,3,5,-6
3166,11,58,-259,-4,11,-10
3167,10,60,-258,21,10,-7
3168,11,60,-258,11,4,-13
3169,10,58,-259,30,3,-13
3170,11,57,-258,-7,0,-6
3171,9,56,-259,10,0,-12
3172,10,59,-258,17,-12,-10
3173,9,57,-259,24,-6,-9
3174,8,57,-258,-5,3,-13
3175,8,57,-259,5,1,-16
3176,8,58,-258,-2,11,-13
3177,8,58,-258,2,9,-7
3178,7,58,-258,23,9,-13
3179,9,57,-259,-1,13,-10
3180,8,58,-258,0,8,-3
3181,8,58,-259,0,5,-4
3182,8,59,-258,4,2,-1
3183,8,60,-257,-9,0,0
3184,8,60,-257,4,0,2
3185,8,59,-259,4,1,-1
3186,8,61,-257,3,4,-3
3187,7,61,-257,0,5,-6
3188,6,61,-258,0,11,-10
3189,8,61,-258,3,13,-9
3190,8,61,-258,-2,10,-10
3191,7,62,-257,7,13,-11
3192,7,61,-258,8,19,-11
3193,8,61,-258,10,12,-8
3194,8,61,-258,6,9,-9
3195,7,61,-257,-4,15,-14
3196,8,62,-258,-1,14,-15
3197,8,62,-257,2,12,-8
3198,8,60,-258,-9,11,-13
3199,8,63,-257,-6,13,-15
3200,9,62,-258,-4,14,-14
3201,8,63,-257,3,12,-8
3202,8,63,-257,-14,13,-16
3203,8,63,-257,4,16,-17
3204,8,64,-257,-3,17,-14
3205,8,64,-257,-4,12,-13
3206,9,64,-257,2,9,-14
3207,8,65,-257,6,21,-14
3208,8,65,-256,11,16,-18
3209,8,65,-257,7,16,-19
3210,9,66,-256,7,11,-21
3211,8,66,-256,7,18,-24
3212,9,65,-257,5,22,-22
3213,9,66,-256,5,13,-20
3214,8,66,-256,0,11,-20
3215,9,66,-257,7,15,-22
3216,9,65,-257,-1,17,-20
3217,10,66,-256,1,13,-15
3218,9,66,-257,-1,10,-16
3219,9,67,-256,2,12,-19
3220,9,66,-257,0,13,-18
3221,9,67,-256,1,13,-12
3222,10,68,-256,8,10,-14
3223,9,68,-257,8,11,-16
3224,9,67,-257,10,14,-13
3225,10,67,-257,9,12,-13
3226,9,68,-256,7,8,-13
3227,10,68,-256,5,9,-16
3228,9,68,-256,11,17,-15
3229,9,68,-257,13,13,-13
3230,10,68,-256,8,9,-12
3231,9,68,-256,13,13,-15
3232,10,67,-257,12,17,-14
3233,9,68,-257,12,14,-11
3234,10,67,-256,8,10,-10
3235,10,68,-256,9,6,-15
3236,9,68,-257,15,14,-13
3237,10,67,-257,11,12,-13
3238,10,67,-257,10,5,-13
3239,9,68,-256,8,6,-14
3240,9,68,-257,11,12,-14
3241,9,67,-257,6,10,-14
3242,10,67,-255,11,4,-9
3243,9,68,-256,6,7,-13
3244,9,67,-256,4,13,-13
3245,9,68,-256,3,15,-9
3246,10,67,-255,12,4,-10
3247,10,67,-256,7,4,-13
3248,9,67,-256,9,12,-11
3249,10,67,-255,8,8,-11
3250,10,66,-256,8,6,-11
3251,9,67,-255,7,6,-14
3252,9,67,-255,8,12,-14
3253,9,67,-255,8,10,-12
3254,9,68,-255,15,7,-10
3255,9,68,-255,12,9,-15
3256,9,68,-255,16,11,-13
3257,9,68,-255,15,8,-11
3258,9,67,-255,8,6,-10
3259,9,68,-255,6,7,-9
3260,9,68,-255,37,12,6
3261,10,65,-256,28,7,4
3262,10,69,-255,34,0,6
3263,9,65,-256,20,5,-1
3264,8,68,-255,28,9,-3
3265,9,67,-256,29,7,-1
3266,9,66,-256,21,4,1
3267,8,67,-255,22,5,-6
3268,9,66,-257,25,8,-5
3269,9,65,-257,27,7,-4
3270,9,65,-257,13,2,-3
3271,9,65,-256,20,5,-5
3272,9,66,-257,25,8,-6
3273,9,65,-256,20,5,-8
3274,10,63,-258,12,1,-5
3275,9,65,-256,21,3,-10
3276,8,65,-257,17,8,-13
3277,9,64,-257,18,9,-11
3278,9,64,-258,19,6,-8
3279,8,64,-258,23,9,-9
3280,8,64,-257,28,13,-13
3281,8,64,-257,30,15,-11
3282,9,64,-257,32,14,-10
3283,9,63,-257,28,11,-10
3284,9,63,-257,19,19,-14
3285,9,63,-257,29,15,-13
3286,9,62,-257,27,12,-11
3287,9,62,-257,27,12,-11
3288,9,61,-257,25,15,-14
3289,9,61,-258,29,16,-13
3290,9,60,-258,26,12,-12
3291,9,60,-257,20,11,-12
3292,9,60,-258,23,14,-15
3293,9,60,-258,20,16,-14
3294,10,59,-259,18,10,-11
3295,9,59,-259,17,9,-12
3296,9,60,-258,21,13,-14
3297,10,58,-259,20,13,-14
3298,9,58,-259,13,11,-13
3299,9,58,-259,15,12,-14
3300,9,58,-259,14,12,-14
3301,9,59,-259,8,10,-14
3302,9,59,-259,14,12,-17
3303,9,59,-259,12,10,-15
3304,9,59,-259,10,10,-15
3305,9,59,-259,9,13,-16
3306,10,59,-258,10,11,-16
3307,9,59,-258,10,13,-15
3308,10,60,-258,6,12,-15
3309,9,59,-258,1,14,-12
3310,10,60,-257,1,9,-13
3311,10,62,-257,20,14,-7
3312,11,60,-257,4,14,-13
3313,11,61,-257,11,8,-11
3314,11,59,-258,7,11,-12
3315,11,60,-258,15,11,-13
3316,11,60,-258,8,12,-10
3317,11,61,-257,10,10,-11
3318,12,60,-258,6,10,-13
3319,10,61,-258,10,10,-12
3320,10,61,-257,8,11,-11
3321,11,61,-258,9,10,-12
3322,11,61,-258,10,9,-13
3323,11,61,-257,12,10,-12
3324,10,60,-257,9,10,-11
3325,10,60,-257,9,11,-12
3326,11,60,-257,14,8,-12
3327,11,60,-257,11,11,-12
3328,10,60,-257,22,11,-12
3329,10,60,-257,13,12,-14
3330,11,60,-257,17,12,-11
3331,10,60,-257,18,11,-12
3332,11,59,-257,16,11,-12
3333,11,59,-257,12,11,-12
3334,11,59,-258,12,10,-11
3335,11,58,-258,15,11,-12
3336,10,59,-257,12,10,-12
3337,11,58,-258,12,10,-12
3338,11,59,-258,16,14,-13
3339,10,58,-257,3,15,-15
3340,11,59,-258,6,14,-17
3341,11,59,-258,14,16,-18
3342,12,59,-258,1,20,-27
3343,12,59,-257,-8,16,-35
3344,12,59,-257,4,14,-36
3345,12,59,-258,0,17,-37
3346,12,62,-257,-2,34,-24
3347,14,60,-257,24,18,-4
3348,13,60,-257,10,-9,-20
3349,12,59,-258,3,12,-24
3350,13,60,-258,8,14,-18
3351,13,60,-258,13,7,-15
3352,12,60,-258,8,6,-18
3353,12,60,-258,11,10,-18
3354,13,60,-258,10,8,-16
3355,12,60,-258,11,7,-16
3356,12,60,-257,9,9,-16
3357,12,60,-257,1,10,-17
3358,12,60,-257,4,11,-16
3359,13,61,-257,10,8,-15
3360,12,61,-257,6,10,-15
3361,13,60,-257,1,9,-16
3362,12,62,-257,6,13,-16
3363,13,61,-257,8,10,-16
3364,12,61,-256,11,9,-15
3365,12,62,-257,7,8,-14
3366,13,61,-256,9,9,-14
3367,13,61,-257,10,8,-12
3368,13,62,-256,15,7,-9
3369,12,61,-257,19,6,-8
3370,13,61,-257,18,10,-10
3371,13,60,-258,17,9,-9
3372,13,60,-257,21,9,-8
3373,12,60,-258,21,8,-10
3374,13,60,-258,21,9,-12
3375,12,60,-258,21,10,-11
3376,13,59,-257,17,10,-11
3377,12,60,-258,20,9,-11
3378,13,59,-258,17,9,-12
3379,13,59,-258,13,11,-12
3380,13,59,-258,16,10,-11
3381,13,58,-258,16,10,-10
3382,12,59,-258,13,10,-10
3383,13,59,-258,13,9,-10
3384,13,59,-258,12,8,-10
3385,13,58,-258,12,9,-11
3386,13,58,-259,14,10,-11
3387,13,58,-258,3,10,-11
3388,12,58,-259,8,10,-10
3389,13,58,-259,-4,10,-14
3390,12,59,-258,4,10,-14
3391,13,58,-259,1,11,-12
3392,13,58,-259,0,10,-16
3393,13,59,-258,5,10,-14
3394,13,59,-258,0,9,-14
3395,12,59,-258,-4,9,-16
3396,12,60,-258,5,9,-15
3397,13,60,-258,3,11,-13
3398,13,60,-258,3,7,-16
3399,13,60,-257,11,11,-21
3400,13,59,-259,-4,15,-32
3401,13,61,-257,0,12,-30
3402,13,60,-257,3,12,-26
3403,13,60,-258,2,10,-25
3404,13,60,-258,5,13,-23
3405,13,61,-257,3,11,-22
3406,13,60,-258,8,12,-20
3407,13,61,-258,9,10,-18
3408,13,61,-257,9,10,-16
3409,13,61,-257,9,10,-17
3410,13,61,-257,6,10,-15
3411,13,61,-258,9,8,-14
3412,12,62,-257,7,9,-15
3413,13,61,-258,13,8,-14
3414,13,61,-258,16,6,-13
3415,12,61,-258,11,7,-13
3416,13,60,-258,10,7,-14
3417,13,61,-258,20,6,-11
3418,12,61,-258,11,7,-13
3419,11,61,-258,9,11,-10
3420,12,60,-259,14,9,-12
3421,11,61,-258,13,8,-13
3422,11,61,-258,14,9,-13
3423,11,61,-258,17,8,-13
3424,11,60,-258,14,10,-12
3425,11,60,-258,13,9,-13
3426,12,59,-259,14,9,-13
3427,11,60,-258,15,9,-14
3428,11,60,-257,14,9,-13
3429,11,60,-258,13,10,-14
3430,12,59,-258,12,9,-13
3431,11,60,-258,12,8,-13
3432,11,60,-258,13,10,-13
3433,11,59,-258,9,10,-13
3434,12,59,-259,11,10,-13
3435,11,59,-258,11,9,-13
3436,10,60,-258,11,10,-13
3437,11,59,-259,11,11,-13
3438,11,59,-258,11,11,-12
3439,11,59,-258,11,10,-13
3440,10,59,-258,12,10,-13
3441,11,59,-258,10,10,-13
3442,11,59,-259,10,11,-13
3443,11,58,-259,8,11,-14
3444,11,59,-259,8,10,-13
3445,11,58,-259,9,11,-14
3446,11,59,-259,10,10,-14
3447,11,59,-258,8,11,-14
3448,11,59,-259,8,9,-14
3449,11,59,-258,10,11,-14
3450,11,59,-259,10,11,-13
3451,11,59,-258,10,12,-13
3452,11,59,-258,6,14,-12
3453,13,59,-258,-17,1,-8
3454,13,60,-259,23,3,9
3455,12,59,-258,9,0,1
3456,12,58,-259,8,11,-4
3457,12,60,-258,8,-3,-6
3458,13,58,-258,11,2,-5
3459,13,59,-258,13,6,-4
3460,13,58,-259,8,10,-5
3461,13,58,-258,10,6,-6
3462,13,59,-258,13,8,-7
3463,14,58,-259,11,7,-7
3464,13,58,-259,13,6,-8
3465,14,58,-259,14,7,-8
3466,14,58,-259,10,7,-9
3467,13,58,-258,13,8,-8
3468,13,58,-258,14,7,-9
3469,13,58,-259,13,7,-9
3470,13,58,-259,11,8,-8
3471,13,58,-259,14,6,-10
3472,13,58,-259,15,7,-10
3473,13,58,-258,14,7,-10
3474,13,58,-259,13,7,-10
3475,13,58,-258,16,7,-11
3476,13,59,-258,16,6,-12
3477,13,58,-259,15,8,-11
3478,13,58,-259,18,9,-11
3479,12,58,-259,16,8,-12
3480,13,58,-259,17,9,-11
3481,13,57,-260,16,8,-11
3482,13,58,-258,15,8,-11
3483,12,58,-258,17,8,-12
3484,13,57,-259,14,9,-11
3485,12,58,-258,14,8,-11
3486,13,57,-259,15,8,-12
3487,12,58,-258,15,7,-12
3488,13,57,-259,16,8,-12
3489,12,57,-259,16,8,-12
3490,13,57,-259,16,8,-13
3491,13,56,-259,15,8,-13
3492,13,57,-259,16,8,-13
3493,13,56,-259,15,8,-13
3494,13,56,-259,15,8,-14
3495,12,56,-259,15,8,-14
3496,13,55,-260,14,7,-14
3497,13,55,-259,15,8,-15
3498,12,57,-259,15,13,-13
3499,11,55,-259,14,6,-14
3500,13,55,-259,15,9,-15
3501,13,56,-258,14,7,-14
3502,12,57,-258,14,12,-13
3503,12,56,-259,8,11,-12
3504,13,56,-259,8,9,-13
3505,12,56,-258,11,7,-14
3506,12,56,-258,9,9,-13
3507,12,56,-258,12,10,-13
3508,13,55,-259,10,10,-12
3509,12,56,-258,12,10,-13
3510,13,55,-259,15,12,-14
3511,14,56,-257,15,19,-21
3512,13,56,-257,13,8,-15
3513,13,55,-258,4,9,-14
3514,13,56,-259,12,13,-16
3515,13,56,-258,7,15,-12
3516,13,55,-259,5,13,-15
3517,13,55,-259,6,14,-16
3518,13,56,-259,2,9,-15
3519,13,56,-258,2,13,-15
3520,13,56,-258,12,12,-15
3521,12,57,-258,14,17,-17
3522,13,58,-258,9,19,-19
3523,12,57,-258,4,14,-19
3524,13,57,-258,8,14,-17
3525,13,58,-257,6,10,-17
3526,13,57,-259,8,12,-15
3527,13,57,-258,1,13,-17
3528,13,57,-259,3,11,-16
3529,13,57,-259,1,12,-16
3530,13,58,-258,-5,9,-19
3531,13,58,-258,1,10,-17
3532,13,60,-258,4,7,-20
3533,12,58,-258,5,8,-20
3534,12,58,-258,12,9,-28
3535,13,58,-258,6,9,-26
3536,12,59,-258,13,9,-25
3537,12,58,-258,10,7,-23
3538,12,58,-258,11,7,-21
3539,12,59,-258,5,8,-17
3540,12,58,-258,8,8,-18
3541,12,58,-258,4,8,-19
3542,12,60,-257,12,7,-18
3543,12,59,-258,7,10,-18
3544,12,58,-258,4,9,-17
3545,11,59,-258,9,10,-17
3546,12,59,-257,8,10,-17
3547,11,59,-257,9,11,-15
3548,11,60,-258,18,11,-15
3549,12,59,-258,17,12,-15
3550,12,59,-257,14,11,-16
3551,12,58,-258,20,11,-15
3552,12,58,-257,27,16,-15
3553,12,58,-258,24,17,-15
3554,12,57,-258,21,15,-15
3555,12,57,-258,20,13,-16
3556,12,58,-258,22,15,-15
3557,13,57,-258,22,14,-16
3558,13,57,-259,20,14,-14
3559,12,57,-258,21,14,-13
3560,12,57,-259,19,14,-14
3561,13,57,-258,18,14,-13
3562,13,56,-258,10,16,-14
3563,12,56,-259,12,13,-12
3564,11,57,-259,17,9,-11
3565,12,57,-258,12,12,-10
3566,14,54,-259,9,12,-11
3567,13,56,-259,16,11,-11
3568,12,57,-258,14,13,-10
3569,13,55,-258,12,12,-10
3570,13,56,-259,10,11,-10
3571,13,56,-259,10,11,-12
3572,13,56,-259,9,12,-12
3573,13,56,-259,9,11,-11
3574,13,56,-259,7,9,-12
3575,13,56,-259,8,10,-13
3576,14,56,-259,9,7,-14
3577,14,55,-261,11,3,-14
3578,12,55,-260,12,5,-11
3579,13,55,-260,8,6,-8
3580,13,56,-259,23,7,0
3581,13,52,-261,4,4,0
3582,12,54,-260,14,1,0
3583,13,53,-260,12,2,3
3584,12,55,-259,27,0,4
3585,12,53,-260,8,3,1
3586,13,56,-264,26,-1,-4
3587,14,55,-261,19,0,-8
3588,12,54,-260,27,7,-8
3589,13,53,-261,16,7,-10
3590,13,54,-261,9,8,-11
3591,13,53,-260,18,11,-12
3592,13,53,-261,17,14,-13
3593,13,54,-260,13,13,-15
3594,13,52,-261,14,12,-15
3595,14,53,-260,15,13,-16
3596,13,54,-260,17,13,-15
3597,14,53,-260,12,11,-15
3598,14,52,-261,20,14,-15
3599,14,53,-260,17,12,-16
3600,14,53,-260,15,12,-15
3601,14,52,-260,21,12,-15
3602,14,52,-260,19,12,-15
3603,14,52,-260,18,11,-15
3604,13,52,-260,19,11,-14
3605,14,52,-260,18,10,-14
3606,13,52,-259,19,10,-13
3607,13,52,-259,15,10,-13
3608,14,51,-260,15,12,-12
3609,14,54,-260,22,9,-10
3610,12,55,-258,18,8,-6
3611,13,52,-260,18,9,-8
3612,12,54,-260,27,4,-8
3613,14,52,-259,15,13,-8
3614,13,52,-260,15,9,-8
3615,14,52,-260,25,10,-7
3616,14,52,-260,24,9,-9
3617,14,52,-259,23,13,-8
3618,14,51,-260,21,10,-9
3619,15,51,-260,23,10,-9
3620,15,51,-260,24,10,-9
3621,15,50,-260,22,10,-10
3622,15,49,-260,23,10,-9
3623,15,49,-260,21,10,-10
3624,15,49,-261,19,10,-10
3625,15,49,-259,18,10,-11
3626,15,48,-260,18,9,-11
3627,15,48,-260,19,9,-11
3628,15,48,-261,19,10,-10
3629,16,47,-260,17,9,-12
3630,15,47,-261,17,10,-11
3631,16,47,-260,18,10,-12
3632,15,47,-261,15,11,-11
3633,15,46,-261,12,10,-12
3634,16,46,-261,12,9,-11
3635,15,46,-261,13,10,-12
3636,15,47,-261,10,11,-11
3637,15,46,-261,11,9,-11
3638,15,46,-261,11,9,-11
3639,15,47,-261,13,11,-11
3640,15,46,-261,10,11,-11
3641,16,46,-261,11,10,-12
3642,15,47,-260,11,11,-11
3643,16,46,-261,6,12,-12
3644,15,47,-260,6,10,-11
3645,16,46,-261,6,6,-12
3646,16,47,-259,9,6,-11
3647,15,46,-261,6,11,-10
3648,15,46,-260,7,8,-11
3649,16,47,-260,13,7,-11
3650,15,47,-260,14,9,-10
3651,15,47,-260,6,9,-11
3652,15,47,-260,6,8,-11
3653,15,48,-259,7,7,-12
3654,15,48,-260,15,7,-11
3655,15,47,-259,12,10,-13
3656,15,48,-259,12,10,-10
3657,15,47,-260,12,11,-11
3658,15,47,-260,17,10,-12
3659,15,48,-259,19,11,-11
3660,15,47,-259,13,10,-11
3661,15,46,-260,16,12,-11
3662,15,47,-260,14,11,-10
3663,16,47,-260,14,11,-11
3664,15,47,-259,16,10,-11
3665,15,47,-260,14,10,-12
3666,16,46,-260,15,11,-11
3667,16,46,-260,16,10,-12
3668,15,47,-259,16,11,-11
3669,16,46,-260,18,12,-12
3670,16,46,-260,17,12,-12
3671,16,46,-261,18,12,-13
3672,16,46,-260,24,10,-13
3673,16,44,-261,17,12,-18
3674,16,46,-260,12,10,-18
3675,16,45,-261,22,13,-16
3676,16,44,-260,17,12,-18
3677,16,45,-260,17,14,-19
3678,16,46,-260,19,14,-21
3679,16,44,-261,10,12,-26
3680,16,45,-261,16,12,-25
3681,16,45,-261,15,11,-22
3682,16,44,-261,13,12,-22
3683,17,45,-261,10,11,-22
3684,16,45,-261,9,11,-20
3685,16,45,-261,12,11,-20
3686,17,44,-262,5,10,-19
3687,17,45,-262,9,9,-20
3688,16,44,-261,7,9,-19
3689,15,45,-261,-2,11,-20
3690,16,45,-262,-6,8,-21
3691,16,46,-261,-2,10,-20
3692,16,46,-261,0,10,-20
3693,15,47,-260,-4,10,-18
3694,16,46,-260,0,8,-20
3695,15,47,-260,-4,10,-23
3696,15,47,-260,-6,11,-23
3697,15,48,-260,-2,8,-19
3698,16,48,-260,-8,9,-20
3699,15,49,-260,-9,9,-19
3700,15,49,-261,-2,10,-16
3701,16,50,-260,-5,6,-18
3702,15,50,-260,3,6,-18
3703,16,51,-260,-3,15,-13
3704,15,50,-260,0,9,-17
3705,16,52,-260,-2,9,-16
3706,16,51,-260,-2,9,-16
3707,16,52,-259,1,10,-16
3708,16,51,-259,3,12,-12
3709,16,52,-260,8,8,-17
3710,16,52,-260,12,8,-14
3711,16,52,-259,26,7,-9
3712,16,53,-258,6,8,-15
3713,16,51,-260,6,8,-13
3714,16,52,-260,6,9,-13
3715,17,52,-260,5,9,-13
3716,16,53,-259,2,9,-15
3717,16,53,-260,0,9,-17
3718,16,53,-260,5,9,-16
3719,17,54,-259,-3,11,-16
3720,17,53,-259,-1,4,-21
3721,15,56,-262,-79,41,-30
3722,16,48,-270,-89,141,-95
3723,26,50,-262,-15,171,-200
3724,24,50,-256,-2,161,-300
3725,29,56,-261,-67,115,-398
3726,26,63,-248,-102,97,-375
3727,21,69,-249,-55,66,-324
3728,15,69,-251,-100,44,-304
3729,13,74,-247,-17,-130,-348
3730,10,83,-250,-18,69,-240
3731,12,72,-249,36,9,-236
3732,11,74,-250,-28,-15,-241
3733,10,73,-252,1,2,-238
3734,12,72,-253,18,55,-250
3735,13,73,-253,12,41,-281
3736,11,75,-251,-16,50,-271
3737,12,77,-251,-9,58,-233
3738,10,78,-251,-18,87,-204
3739,13,80,-252,23,83,-191
3740,14,81,-251,-27,61,-140
3741,11,81,-251,-34,56,-124
3742,9,82,-249,62,60,-125
3743,16,83,-254,27,85,-104
3744,16,80,-251,38,70,-94
3745,15,79,-253,52,49,-93
3746,16,78,-253,46,60,-77
3747,18,78,-254,50,53,-72
3748,19,77,-253,55,47,-63
3749,19,76,-254,73,31,-58
3750,19,76,-254,67,52,-50
3751,20,75,-255,128,33,-46
3752,17,71,-257,96,22,-51
3753,17,74,-255,42,4,-32
3754,15,73,-257,36,8,-4
3755,15,74,-255,16,7,36
3756,15,74,-255,-30,-4,86
3757,18,76,-252,-69,-22,148
3758,21,76,-250,-105,-59,216
3759,21,75,-247,-125,-92,267
3760,19,70,-247,-25,-129,259
3761,17,69,-257,13,-141,245
3762,23,54,-273,0,-97,261
3763,20,66,-258,68,-109,269
3764,18,59,-260,49,-94,238
3765,17,60,-262,18,-88,210
3766,18,56,-262,65,-83,209
3767,19,56,-259,51,-77,199
3768,15,56,-260,47,-62,184
3769,15,54,-261,14,-56,164
3770,16,55,-260,45,-54,151
3771,15,52,-261,3,-48,135
3772,15,54,-261,15,-42,123
3773,14,54,-260,10,-39,114
3774,15,53,-260,24,-32,107
3775,15,53,-259,15,-31,93
3776,14,54,-260,22,-27,85
3777,14,53,-260,10,-20,75
3778,14,52,-260,20,-17,68
3779,14,53,-260,5,-16,59
3780,14,53,-260,11,-12,52
3781,14,53,-260,2,-5,49
3782,14,53,-259,5,-7,40
3783,14,53,-260,-5,-5,35
3784,14,54,-259,13,-2,35
3785,14,53,-260,3,-6,29
3786,14,53,-259,15,-2,27
3787,14,53,-259,3,-2,27
3788,14,53,-260,19,-1,24
3789,13,54,-259,21,0,27
3790,14,52,-259,15,2,31
3791,14,52,-260,22,5,41
3792,13,53,-259,35,-2,44
3793,15,53,-259,36,0,33
3794,14,51,-259,18,0,28
3795,15,51,-260,31,2,25
3796,14,51,-259,35,1,24
3797,15,49,-260,32,3,19
3798,14,50,-259,32,4,10
3799,14,48,-260,22,9,6
3800,15,49,-260,27,10,2
3801,14,48,-260,21,10,-1
3802,15,48,-260,19,9,-3
3803,15,47,-259,25,10,-7
3804,16,46,-261,14,9,-11
3805,15,47,-261,18,8,-8
3806,15,46,-261,16,12,-7
3807,15,46,-261,14,8,-7
3808,15,44,-261,12,14,-7
3809,15,45,-262,7,13,-14
3810,16,46,-261,14,13,-17
3811,15,45,-261,5,11,-15
3812,15,45,-261,15,12,-14
3813,16,45,-261,9,12,-14
3814,16,45,-262,8,8,-9
3815,15,47,-261,22,6,15
3816,15,43,-262,37,9,8
3817,17,45,-261,11,8,-3
3818,16,43,-262,20,7,-1
3819,16,43,-261,19,8,0
3820,16,43,-261,21,6,-4
3821,16,43,-261,17,7,-5
3822,16,42,-261,17,7,-5
3823,15,43,-261,14,4,-5
3824,15,42,-261,19,8,-6
3825,16,42,-261,18,8,-7
3826,16,42,-260,12,7,-7
3827,15,42,-261,12,9,-9
3828,15,41,-261,18,17,-11
3829,16,42,-261,1,23,-40
3830,16,39,-262,-62,22,-57
3831,15,45,-261,8,18,-33
3832,15,42,-262,-3,20,-32
3833,16,44,-261,-9,18,-40
3834,16,44,-261,-12,15,-37
3835,15,46,-261,6,16,-31
3836,16,44,-262,5,13,-29
3837,16,45,-261,-3,15,-27
3838,16,45,-261,11,14,-22
3839,16,45,-261,1,13,-21
3840,16,45,-261,3,11,-20
3841,15,45,-260,0,14,-22
3842,15,46,-260,0,13,-20
3843,15,46,-261,1,15,-18
3844,16,46,-261,11,10,-18
3845,16,46,-261,6,12,-16
3846,16,46,-260,8,13,-4
3847,17,47,-261,19,10,1
3848,16,46,-261,17,16,4
3849,17,47,-260,22,8,-3
3850,17,47,-260,16,4,-2
3851,16,46,-260,24,4,3
3852,16,46,-260,16,6,11
3853,16,46,-261,36,5,13
3854,17,44,-261,27,4,9
3855,16,44,-261,31,3,8
3856,16,44,-261,29,4,5
3857,16,43,-261,32,6,4
3858,16,44,-261,35,5,-1
3859,16,42,-262,23,5,0
3860,15,42,-261,23,6,0
3861,16,42,-262,22,4,-2
3862,16,41,-262,22,3,-4
3863,16,41,-261,28,2,0
3864,16,40,-262,18,3,-4
3865,15,40,-262,15,2,-6
3866,15,40,-261,27,4,-3
3867,15,40,-261,22,5,-7
3868,15,40,-261,23,5,-7
3869,15,40,-261,21,5,-10
3870,15,39,-261,25,7,-11
3871,15,39,-261,23,8,-10
3872,15,39,-261,21,12,-12
3873,15,38,-261,24,13,-13
3874,15,38,-261,17,13,-16
3875,15,38,-261,15,15,-17
3876,14,38,-260,14,18,-22
3877,15,38,-261,10,18,-24
3878,15,38,-260,8,17,-23
3879,16,38,-261,9,17,-25
3880,15,38,-261,5,17,-27
3881,15,37,-261,3,16,-30
3882,15,38,-260,1,25,-31
3883,16,39,-260,12,30,-19
3884,16,37,-261,9,10,-22
3885,16,38,-261,0,7,-24
3886,16,38,-261,3,10,-23
3887,16,38,-261,3,11,-22
3888,16,38,-260,6,11,-20
3889,16,38,-261,5,11,-21
3890,16,38,-260,7,12,-20
3891,16,39,-261,7,11,-19
3892,16,39,-260,9,13,-20
3893,16,39,-261,11,13,-19
3894,16,40,-260,11,13,-19
3895,17,39,-261,9,12,-20
3896,16,39,-261,13,13,-18
3897,16,39,-261,13,12,-18
3898,16,39,-261,13,12,-18
3899,16,38,-261,13,11,-17
3900,16,38,-262,15,11,-16
3901,17,38,-262,14,11,-16
3902,16,38,-261,13,10,-16
3903,17,37,-262,14,11,-16
3904,16,38,-261,12,11,-16
3905,17,37,-261,14,12,-17
3906,16,37,-261,11,11,-17
3907,16,38,-261,6,12,-21
3908,16,38,-261,5,10,-19
3909,16,37,-261,8,11,-22
3910,17,37,-262,8,12,-22
3911,16,36,-262,-2,12,-24
3912,16,39,-260,1,28,-11
3913,17,37,-261,13,9,-8
3914,17,37,-261,-2,4,-14
3915,16,38,-261,-7,6,-16
3916,16,39,-261,1,13,-14
3917,17,38,-261,5,11,-14
3918,17,38,-262,2,11,-22
3919,16,39,-262,-3,13,-29
3920,16,39,-261,-5,11,-31
3921,17,38,-262,-3,11,-32
3922,16,40,-261,3,11,-27
3923,16,39,-262,0,12,-26
3924,16,40,-261,2,11,-25
3925,16,40,-261,-3,8,-18
3926,16,41,-261,17,11,-8
3927,16,41,-261,17,10,-6
3928,16,40,-261,13,12,-13
3929,17,40,-261,14,11,-11
3930,16,40,-261,14,11,-10
3931,16,40,-261,13,11,-12
3932,16,40,-261,11,12,-15
3933,17,39,-262,12,12,-16
3934,16,40,-261,9,11,-20
3935,17,39,-262,-1,15,-22
3936,16,40,-261,8,13,-25
3937,16,40,-261,-4,10,-17
3938,16,41,-261,3,8,-11
3939,15,41,-261,0,11,-18
3940,16,42,-261,7,11,-21
3941,16,42,-261,-1,11,-24
3942,16,42,-261,3,8,-22
3943,16,43,-260,3,9,-20
3944,16,43,-260,5,9,-21
3945,16,43,-261,2,9,-21
3946,15,43,-260,6,7,-21
3947,15,44,-261,11,11,-21
3948,15,43,-261,5,9,-19
3949,15,43,-260,3,11,-18
3950,15,43,-261,2,10,-20
3951,15,44,-260,3,11,-17
3952,16,43,-261,2,9,-16
3953,15,44,-261,5,8,-15
3954,16,42,-261,-4,9,-16
3955,16,44,-260,5,8,-16
3956,16,44,-261,-1,12,-15
3957,16,43,-261,4,8,-14
3958,16,44,-260,5,10,-14
3959,16,45,-261,6,8,-15
3960,16,45,-261,7,10,-14
3961,16,44,-260,8,9,-14
3962,15,44,-261,2,9,-15
3963,15,44,-260,7,9,-12
3964,16,44,-260,14,8,-9
3965,16,44,-260,2,10,-6
3966,15,43,-260,15,10,-3
3967,16,44,-260,13,9,-5
3968,16,43,-260,11,10,-6
3969,16,43,-260,9,10,-6
3970,16,44,-260,13,10,-6
3971,16,44,-259,17,9,-4
3972,16,43,-260,17,10,-6
3973,16,43,-260,13,10,-6
3974,16,43,-260,16,9,-7
3975,16,43,-260,15,9,-9
3976,16,42,-260,12,9,-7
3977,16,43,-259,15,10,-4
3978,16,42,-260,28,8,1
3979,16,43,-260,20,10,1
3980,16,42,-260,17,12,-6
3981,16,41,-260,13,13,-14
3982,17,42,-260,9,11,-20
3983,17,41,-260,9,12,-18
3984,17,41,-260,14,10,-15
3985,17,41,-260,8,9,-16
3986,16,42,-260,14,8,-15
3987,17,42,-261,13,10,-16
3988,17,41,-260,10,9,-16
3989,17,41,-261,10,9,-16
3990,16,42,-260,10,11,-14
3991,17,41,-260,10,9,-13
3992,17,41,-260,10,11,-13
3993,16,42,-260,9,10,-15
3994,17,41,-260,11,10,-13
3995,17,41,-261,10,10,-14
3996,17,40,-260,8,10,-13
3997,17,41,-261,8,10,-13
3998,17,41,-261,15,8,-12
3999,17,41,-260,18,7,-11
4000,16,41,-260,14,7,-12
4001,17,40,-260,17,7,-11
4002,17,40,-260,15,7,-11
4003,16,40,-260,15,8,-11
4004,16,40,-260,14,9,-11
4005,17,40,-261,13,7,-12
4006,17,40,-261,14,8,-12
4007,16,40,-260,15,9,-12
4008,16,41,-260,14,9,-12
4009,17,40,-260,15,12,-14
4010,16,39,-262,8,13,-15
4011,16,40,-260,14,11,-14
4012,16,41,-260,13,9,-12
4013,17,39,-261,17,8,-14
4014,16,40,-261,19,7,-13
4015,16,39,-261,17,8,-11
4016,16,39,-261,15,7,-11
4017,15,39,-261,18,7,-10
4018,15,40,-261,17,7,-10
4019,16,39,-262,16,7,-11
4020,16,38,-262,15,7,-13
4021,15,38,-261,16,7,-12
4022,16,38,-261,16,8,-12
4023,16,37,-262,15,9,-13
4024,16,37,-262,16,9,-12
4025,16,38,-261,16,9,-13
4026,15,38,-262,15,10,-14
4027,16,37,-262,14,10,-13
4028,16,37,-262,15,10,-11
4029,15,38,-262,13,10,-14
4030,16,37,-263,14,12,-13
4031,15,37,-262,7,12,-17
4032,16,36,-263,-6,15,-23
4033,16,37,-261,-19,16,-30
4034,16,38,-262,-18,13,-24
4035,16,37,-262,-6,13,-24
4036,16,39,-261,-12,14,-26
4037,16,39,-261,-10,12,-25
4038,15,40,-261,-7,12,-22
4039,15,40,-261,-5,12,-21
4040,16,41,-261,-8,10,-20
4041,15,42,-260,-5,12,-18
4042,15,42,-261,-5,11,-17
4043,15,42,-261,-4,11,-18
4044,15,42,-261,-1,12,-17
4045,15,43,-260,-1,10,-17
4046,15,44,-260,-1,12,-16
4047,15,44,-261,2,14,-12
4048,15,44,-261,6,12,-11
4049,15,45,-261,4,11,-13
4050,15,44,-261,6,11,-13
4051,16,45,-262,6,12,-12
4052,16,45,-262,7,12,-10
4053,16,45,-261,8,10,-10
4054,17,45,-262,8,11,-12
4055,16,45,-261,8,10,-10
4056,16,45,-261,11,11,-11
4057,17,45,-261,10,10,-12
4058,17,45,-261,8,11,-12
4059,16,45,-261,11,10,-12
4060,17,45,-261,11,10,-12
4061,16,46,-260,10,9,-12
4062,16,46,-261,9,9,-12
4063,17,45,-261,14,9,-11
4064,17,45,-261,12,9,-12
4065,16,45,-261,12,9,-12
4066,16,45,-260,13,9,-13
4067,17,45,-261,14,9,-14
4068,16,44,-261,13,9,-13
4069,17,44,-261,13,9,-14
4070,17,44,-260,13,10,-14
4071,17,45,-260,10,7,-14
4072,17,44,-261,11,9,-14
4073,16,44,-261,10,9,-13
4074,17,44,-260,5,9,-13
4075,17,44,-260,4,8,-12
4076,17,44,-261,7,8,-14
4077,17,44,-260,5,10,-13
4078,16,45,-260,6,8,-13
4079,16,44,-261,5,9,-12
4080,16,45,-260,6,8,-12
4081,16,45,-260,6,10,-12
4082,16,45,-260,5,9,-11
4083,16,45,-260,9,9,-10
4084,16,45,-260,12,8,-7
4085,16,45,-260,12,12,-3
4086,16,44,-261,20,7,-3
4087,16,45,-259,17,7,0
4088,16,43,-260,20,10,1
4089,16,44,-260,23,7,-1
4090,17,43,-261,18,7,-1
4091,16,43,-261,21,8,-2
4092,16,43,-261,20,8,-3
4093,16,43,-261,22,9,-3
4094,16,43,-261,23,9,-4
4095,17,42,-261,22,9,-5
4096,16,42,-260,22,9,-5
4097,16,42,-260,20,8,-4
4098,16,41,-261,20,8,-4
4099,16,42,-260,18,9,-6
4100,16,42,-260,19,9,-7
4101,17,41,-261,18,8,-7
4102,17,40,-262,20,8,-7
4103,16,41,-260,18,9,-8
4104,16,41,-261,19,9,-10
4105,16,40,-260,20,8,-11
4106,16,40,-261,17,8,-13
4107,16,40,-260,11,12,-17
4108,16,40,-261,14,10,-18
4109,16,40,-261,9,9,-17
4110,16,40,-261,14,10,-20
4111,17,40,-261,11,10,-18
4112,17,40,-262,10,10,-18
4113,16,40,-261,9,9,-16
4114,17,40,-261,9,8,-15
4115,16,40,-261,12,8,-13
4116,17,39,-262,14,7,-13
4117,16,40,-261,6,9,-8
4118,17,39,-262,14,9,-9
4119,16,40,-261,17,12,-9
4120,16,39,-261,17,11,-17
4121,16,39,-261,-6,14,-22
4122,17,40,-261,19,10,-13
4123,16,39,-261,10,11,-12
4124,16,40,-261,9,12,-15
4125,16,39,-261,3,11,-14
4126,17,40,-262,3,11,-12
4127,17,39,-261,7,11,-11
4128,16,40,-262,3,9,-13
4129,17,40,-262,2,10,-13
4130,17,40,-262,0,8,-13
4131,17,40,-262,3,8,-12
4132,17,40,-262,1,10,-13
4133,17,40,-262,2,9,-14
4134,17,40,-261,4,13,-11
4135,17,41,-261,6,11,-13
4136,17,41,-261,8,11,-13
4137,17,41,-261,9,9,-14
4138,17,41,-260,12,11,-12
4139,17,41,-261,10,11,-12
4140,17,41,-261,9,11,-11
4141,17,41,-261,11,12,-10
4142,17,43,-260,16,12,-9
4143,17,41,-261,14,11,-11
4144,17,42,-261,17,10,-13
4145,17,42,-261,12,13,-13
4146,17,41,-261,9,12,-14
4147,17,42,-261,14,12,-13
4148,17,42,-262,9,10,-13
4149,16,42,-261,10,11,-12
4150,16,43,-260,9,10,-11
4151,17,42,-261,14,9,-10
4152,17,41,-262,14,8,-9
4153,17,43,-260,20,6,-7
4154,16,42,-261,12,6,-5
4155,17,41,-261,17,7,-4
4156,17,40,-262,13,6,-6
4157,17,42,-260,16,5,-8
4158,16,41,-261,15,6,-9
4159,16,41,-260,16,6,-7
4160,16,40,-260,14,7,-9
4161,16,40,-260,12,5,-10
4162,16,41,-261,10,6,-11
4163,16,40,-261,10,10,-9
4164,16,40,-261,14,5,-13
4165,16,40,-262,3,7,-12
4166,16,40,-261,9,7,-11
4167,16,40,-261,7,9,-10
4168,16,41,-261,10,11,-8
4169,16,41,-262,7,10,-12
4170,16,39,-261,14,11,-17
4171,15,41,-261,0,14,-22
4172,17,41,-262,9,12,-20
4173,16,41,-262,11,12,-19
4174,16,41,-261,5,13,-21
4175,16,41,-262,9,12,-20
4176,16,41,-261,10,11,-18
4177,16,42,-261,8,12,-17
4178,17,41,-262,1,12,-16
4179,15,42,-261,9,11,-14
4180,16,41,-261,10,9,-15
4181,16,41,-261,10,10,-13
4182,17,41,-262,7,9,-14
4183,16,42,-261,10,10,-14
4184,16,42,-262,4,10,-15
4185,16,41,-261,3,10,-13
4186,17,42,-262,5,9,-12
4187,16,42,-261,5,10,-14
4188,16,43,-261,4,12,-11
4189,16,43,-261,7,10,-14
4190,17,42,-262,8,11,-12
4191,16,43,-261,10,10,-12
4192,16,43,-261,15,11,-13
4193,16,42,-261,11,10,-14
4194,16,43,-261,11,11,-13
4195,16,42,-261,12,10,-14
4196,17,42,-261,12,11,-14
4197,16,42,-262,11,10,-14
4198,16,42,-261,11,11,-15
4199,17,42,-261,10,11,-14
4200,17,42,-261,9,11,-16
4201,16,42,-261,13,12,-13
4202,16,43,-260,9,11,-14
4203,16,43,-261,11,11,-14
4204,17,42,-261,12,10,-15
4205,16,42,-261,13,10,-15
4206,17,42,-260,14,10,-13
4207,16,42,-260,12,11,-13
4208,17,43,-260,13,11,-14
4209,17,42,-260,10,11,-14
4210,17,41,-261,11,11,-13
4211,16,42,-260,8,11,-13
4212,17,42,-261,9,12,-13
4213,16,41,-261,9,12,-12
4214,16,41,-262,4,13,-10
4215,16,43,-261,19,20,-3
4216,17,44,-260,9,0,1
4217,15,42,-261,12,10,-5
4218,16,43,-260,17,9,-5
4219,16,43,-261,10,9,-4
4220,17,41,-261,12,5,-5
4221,16,42,-261,10,10,-8
4222,16,42,-261,17,10,-6
4223,17,43,-260,24,13,-7
4224,16,43,-260,16,12,-8
4225,17,41,-260,19,11,-9
4226,17,42,-261,21,11,-9
4227,17,41,-260,20,12,-12
4228,17,41,-260,17,12,-11
4229,17,41,-261,15,12,-12
4230,17,40,-261,15,14,-13
4231,17,41,-261,13,14,-15
4232,17,41,-260,7,13,-17
4233,17,40,-260,9,12,-18
4234,17,41,-260,11,11,-18
4235,17,41,-260,12,11,-18
4236,17,42,-261,12,10,-19
4237,17,41,-260,9,12,-19
4238,17,41,-261,11,11,-17
4239,17,42,-260,6,10,-17
4240,17,41,-260,3,10,-17
4241,18,41,-260,4,11,-17
4242,17,42,-260,-1,9,-16
4243,18,41,-260,-3,10,-15
4244,17,42,-260,0,9,-17
4245,17,42,-260,-2,9,-16
4246,17,42,-261,-4,10,-16
4247,17,44,-260,3,11,-13
4248,17,44,-260,0,10,-15
4249,17,43,-261,2,11,-14
4250,17,44,-260,4,9,-14
4251,17,44,-260,6,9,-13
4252,17,45,-260,5,9,-14
4253,17,45,-260,8,10,-13
4254,17,45,-260,0,11,-12
4255,17,46,-259,7,10,-12
4256,17,46,-260,6,9,-12
4257,17,46,-259,7,10,-12
4258,17,46,-260,6,10,-12
4259,17,46,-259,6,9,-12
4260,17,47,-260,10,10,-13
4261,17,47,-260,4,10,-12
4262,17,47,-260,7,10,-12
4263,16,46,-260,6,10,-12
4264,17,47,-261,7,10,-12
4265,16,47,-260,10,10,-13
4266,17,47,-260,6,12,-10
4267,16,47,-260,9,11,-13
4268,16,48,-261,8,10,-12
4269,16,47,-259,7,11,-11
4270,16,47,-260,8,9,-13
4271,17,47,-261,10,9,-11
4272,16,47,-260,9,10,-12
4273,16,47,-260,9,9,-12
4274,16,48,-260,8,9,-12
4275,17,48,-259,7,11,-11
4276,17,48,-260,6,8,-12
4277,17,47,-261,6,8,-13
4278,17,48,-260,9,8,-12
4279,17,47,-260,5,9,-12
4280,17,47,-261,7,11,-10
4281,17,48,-260,12,9,-13
4282,17,48,-260,9,9,-12
4283,16,48,-260,8,9,-13
4284,16,48,-261,7,7,-13
4285,16,48,-260,8,9,-12
4286,16,48,-260,5,11,-11
4287,16,48,-260,9,8,-13
4288,16,48,-260,11,9,-13
4289,16,48,-260,9,8,-13
4290,16,48,-261,11,11,-12
4291,16,48,-261,12,9,-13
4292,16,48,-261,13,9,-14
4293,16,48,-261,10,8,-12
4294,16,48,-261,12,8,-13
4295,16,48,-261,11,9,-11
4296,16,48,-261,11,13,-13
4297,17,48,-261,10,9,-11
4298,17,47,-261,10,10,-12
4299,17,47,-261,8,10,-12
4300,17,47,-261,7,10,-11
4301,17,47,-261,8,9,-12
4302,17,47,-261,11,11,-12
4303,18,47,-262,8,11,-11
4304,17,47,-262,10,10,-11
4305,17,47,-261,9,10,-12
4306,18,47,-262,13,11,-13
4307,17,47,-261,7,11,-11
4308,19,49,-260,5,4,0
4309,18,49,-260,26,3,4
4310,18,48,-260,20,0,0
4311,16,48,-260,23,9,-3
4312,17,48,-261,26,6,-4
4313,16,48,-261,20,6,-3
4314,17,46,-260,20,7,-6
4315,16,47,-261,22,11,-7
4316,17,45,-261,11,15,-16
4317,17,46,-260,6,15,-18
4318,18,45,-261,3,11,-17
4319,17,46,-261,10,12,-17
4320,18,45,-261,7,12,-17
4321,18,45,-260,7,10,-17
4322,18,46,-261,11,11,-16
4323,17,46,-261,11,9,-16
4324,18,46,-260,11,10,-14
4325,18,45,-260,7,8,-15
4326,18,45,-261,9,9,-15
4327,17,45,-261,9,8,-15
4328,18,45,-260,8,7,-14
4329,17,45,-260,11,6,-13
4330,18,44,-261,10,7,-11
4331,18,45,-261,16,5,-11
4332,18,45,-261,17,7,-10
4333,18,44,-261,14,8,-11
4334,18,43,-261,14,6,-11
4335,17,45,-260,17,8,-10
4336,17,43,-261,11,9,-6
4337,17,43,-261,15,9,-6
4338,17,43,-261,13,6,-8
4339,16,44,-260,13,8,-7
4340,17,43,-260,12,8,-8
4341,17,43,-260,17,7,-7
4342,17,43,-260,16,9,-8
4343,16,43,-259,15,9,-8
4344,16,43,-260,14,9,-9
4345,17,42,-260,14,8,-9
4346,16,43,-259,18,11,-8
4347,17,42,-261,13,10,-9
4348,17,42,-260,19,9,-8
4349,17,42,-260,18,9,-9
4350,17,43,-259,17,10,-10
4351,16,42,-260,19,12,-9
4352,17,41,-259,16,10,-9
4353,16,42,-259,17,10,-11
4354,16,42,-259,15,10,-10
4355,17,42,-259,17,11,-12
4356,17,41,-260,12,11,-10
4357,16,42,-260,14,10,-12
4358,16,42,-259,18,12,-12
4359,16,42,-260,14,10,-11
4360,16,42,-259,15,11,-12
4361,16,42,-260,13,10,-13
4362,16,42,-260,15,10,-12
4363,16,41,-260,13,10,-13
4364,16,41,-260,14,11,-13
4365,16,41,-260,14,9,-12
4366,16,40,-260,10,9,-13
4367,16,40,-261,13,9,-12
4368,16,41,-260,14,10,-12
4369,16,40,-261,11,9,-12
4370,16,40,-261,12,8,-12
4371,16,40,-261,12,8,-13
4372,16,40,-261,12,9,-11
4373,17,39,-262,12,7,-12
4374,16,40,-260,14,8,-12
4375,17,39,-261,14,8,-12
4376,16,39,-262,14,7,-12
4377,16,39,-262,13,7,-10
4378,16,39,-262,12,8,-11
4379,16,40,-261,16,8,-14
4380,17,38,-262,18,8,-12
4381,16,39,-261,14,10,-12
4382,16,38,-261,18,10,-13
4383,16,39,-262,15,9,-13
4384,17,38,-261,15,10,-14
4385,16,38,-261,14,11,-13
4386,17,37,-261,13,9,-12
4387,16,38,-261,13,10,-13
4388,17,38,-261,16,8,-13
4389,16,38,-262,13,11,-14
4390,17,38,-261,13,10,-13
4391,16,38,-262,13,10,-14
4392,17,38,-262,13,10,-13
4393,17,38,-261,15,10,-14
4394,16,38,-261,11,9,-13
4395,16,38,-261,14,10,-15
4396,16,39,-261,13,11,-14
4397,16,39,-261,10,10,-12
4398,16,38,-261,9,9,-13
4399,16,39,-261,10,10,-11
4400,16,39,-261,9,10,-12
4401,16,38,-261,8,10,-12
4402,16,39,-260,11,10,-12
4403,17,38,-261,7,11,-12
4404,16,38,-261,10,8,-12
4405,17,38,-261,11,11,-13
4406,16,38,-261,8,9,-13
4407,16,38,-261,5,13,-11
4408,17,38,-262,5,13,-12
4409,17,37,-261,-1,15,-11
4410,17,37,-262,5,12,-13
4411,16,38,-261,3,12,-11
4412,17,37,-262,1,12,-13
4413,17,38,-262,7,12,-12
4414,17,38,-261,6,11,-11
4415,17,39,-262,10,11,-12
4416,16,38,-262,8,12,-13
4417,16,38,-261,8,12,-12
4418,17,38,-262,8,11,-12
4419,17,38,-262,10,11,-13
4420,17,38,-262,9,11,-12
4421,16,38,-262,6,12,-13
4422,16,38,-261,8,11,-12
4423,16,38,-261,7,12,-13
4424,16,38,-261,9,11,-13
4425,17,38,-262,8,11,-13
4426,16,38,-261,9,13,-15
4427,16,38,-261,11,13,-16
4428,17,39,-260,-3,14,-19
4429,16,40,-261,11,8,-16
4430,16,39,-261,6,13,-16
4431,16,39,-262,7,12,-16
4432,16,39,-261,7,9,-16
4433,17,38,-262,8,10,-16
4434,16,39,-261,11,12,-16
4435,16,39,-262,9,12,-16
4436,17,38,-262,9,12,-19
4437,16,38,-261,5,8,-24
4438,17,38,-262,11,10,-18
4439,16,39,-261,7,12,-17
4440,17,38,-261,9,10,-15
4441,17,38,-261,6,9,-16
4442,17,38,-262,10,12,-14
4443,17,38,-261,7,5,-15
4444,16,39,-262,6,10,-13
4445,16,39,-261,3,13,-11
4446,17,39,-261,6,10,-12
4447,17,39,-262,7,10,-13
4448,16,39,-261,10,11,-12
4449,16,39,-261,9,10,-11
4450,17,39,-261,8,10,-12
4451,16,39,-261,12,11,-11
4452,16,39,-262,13,12,-13
4453,16,39,-261,12,10,-12
4454,16,39,-261,10,12,-12
4455,17,38,-261,13,12,-14
4456,17,38,-262,15,11,-11
4457,16,39,-261,15,12,-12
4458,16,38,-261,14,11,-15
4459,16,38,-261,14,17,-19
4460,16,39,-261,6,14,-21
4461,16,38,-262,12,12,-20
4462,17,38,-261,8,13,-19
4463,17,39,-261,8,13,-19
4464,16,39,-261,5,13,-16
4465,16,39,-261,6,11,-14
4466,17,38,-262,7,12,-14
4467,17,39,-262,9,11,-15
4468,17,38,-262,4,13,-19
4469,17,39,-262,6,14,-19
4470,18,38,-262,2,12,-19
4471,17,39,-262,1,12,-26
4472,18,39,-263,1,11,-26
4473,17,39,-261,-1,11,-24
4474,17,40,-261,6,13,-24
4475,18,40,-261,0,10,-23
4476,18,40,-262,3,9,-21
4477,17,41,-261,4,9,-19
4478,18,40,-261,9,8,-18
4479,18,40,-261,9,8,-18
4480,17,41,-261,6,9,-18
4481,17,40,-260,7,10,-19
4482,17,41,-261,10,9,-19
4483,17,40,-261,7,9,-18
4484,16,41,-260,8,10,-19
4485,16,41,-260,11,10,-19
4486,16,41,-260,9,9,-19
4487,16,41,-260,12,10,-17
4488,16,41,-260,10,9,-18
4489,16,41,-261,11,9,-16
4490,16,41,-260,11,10,-16
4491,16,41,-260,10,9,-16
4492,16,41,-260,11,9,-15
4493,16,41,-260,11,10,-16
4494,16,41,-260,10,10,-15
4495,17,41,-261,12,9,-14
4496,16,41,-261,12,11,-14
4497,16,42,-259,11,12,-13
4498,17,40,-261,14,10,-15
4499,17,41,-260,13,10,-15
4500,16,41,-260,10,10,-15
4501,16,41,-260,7,11,-12
4502,17,41,-260,9,10,-12
4503,16,41,-260,9,11,-12
4504,16,41,-260,8,11,-14
4505,16,41,-260,2,12,-15
4506,16,42,-260,8,9,-14
4507,16,41,-260,8,10,-13
4508,16,41,-260,5,11,-14
4509,16,41,-260,4,10,-14
4510,16,42,-260,7,10,-13
4511,16,41,-260,4,11,-14
4512,16,41,-260,2,10,-13
4513,16,40,-260,4,13,-12
4514,17,41,-261,11,9,-14
4515,16,42,-260,10,11,-14
4516,17,41,-261,8,11,-13
4517,16,42,-261,10,11,-13
4518,16,42,-260,10,11,-14
4519,16,42,-261,11,11,-13
4520,17,42,-261,11,11,-12
4521,17,42,-260,7,11,-8
4522,18,41,-261,8,6,-1
4523,17,42,-261,29,6,4
4524,17,41,-261,12,7,-4
4525,17,41,-261,16,5,-4
4526,18,39,-261,8,6,-6
4527,16,41,-262,14,7,-5
4528,17,41,-261,18,9,-8
4529,17,40,-262,1,12,-15
4530,17,41,-262,0,11,-19
4531,17,41,-262,6,9,-20
4532,17,40,-262,5,11,-20
4533,17,40,-262,1,10,-21
4534,17,41,-262,0,8,-20
4535,17,41,-262,-1,10,-21
4536,16,41,-262,-4,10,-22
4537,17,42,-262,-3,9,-21
4538,16,42,-262,-5,10,-22
4539,16,43,-261,-1,10,-21
4540,16,44,-261,-1,10,-21
4541,16,44,-262,-3,9,-19
4542,16,44,-261,0,8,-18
4543,15,45,-261,-3,11,-17
4544,16,44,-261,-5,9,-18
4545,16,46,-261,-10,9,-18
4546,16,47,-260,-3,9,-18
4547,16,46,-261,-1,12,-16
4548,17,47,-260,3,9,-16
4549,17,46,-260,1,10,-16
4550,17,46,-261,1,10,-16
4551,16,48,-260,4,10,-16
4552,16,47,-261,5,9,-16
4553,17,47,-261,2,10,-15
4554,17,47,-261,3,10,-15
4555,16,48,-260,3,10,-16
4556,17,48,-261,6,9,-14
4557,17,48,-261,3,10,-15
4558,16,48,-260,4,10,-14
4559,17,49,-260,7,8,-18
4560,17,48,-259,3,14,-13
4561,17,49,-259,9,9,-15
4562,17,49,-260,11,12,-14
4563,17,49,-260,10,9,-14
4564,16,49,-259,11,10,-13
4565,16,49,-259,11,10,-13
4566,17,48,-260,12,9,-13
4567,16,49,-259,12,9,-13
4568,16,48,-259,12,9,-13
4569,17,48,-259,12,8,-13
4570,17,47,-260,13,8,-12
4571,16,47,-259,15,7,-13
4572,17,47,-260,15,8,-12
4573,17,46,-260,12,8,-13
4574,17,47,-260,12,8,-12
4575,17,46,-259,14,8,-13
4576,18,46,-261,15,8,-13
4577,17,46,-260,13,9,-13
4578,17,46,-260,14,8,-12
4579,17,45,-260,14,8,-14
4580,16,46,-260,14,8,-14
4581,17,45,-260,14,9,-13
4582,17,45,-260,12,8,-13
4583,17,45,-261,12,8,-14
4584,17,45,-260,10,7,-15
4585,17,44,-260,12,11,-13
4586,17,44,-261,13,10,-12
4587,17,45,-261,14,9,-13
4588,17,44,-261,15,9,-12
4589,17,45,-260,14,10,-12
4590,17,45,-261,11,10,-12
4591,17,44,-261,9,10,-12
4592,18,44,-261,7,9,-11
4593,17,44,-261,9,10,-11
4594,17,45,-261,6,9,-10
4595,17,44,-261,3,9,-10
4596,17,45,-261,9,10,-10
4597,17,45,-261,8,9,-10
4598,16,45,-260,8,10,-11
4599,17,44,-260,8,10,-11
4600,16,46,-260,9,10,-12
4601,16,45,-261,9,10,-12
4602,17,45,-260,9,10,-11
4603,17,45,-261,7,9,-12
4604,17,46,-261,7,9,-11
4605,17,45,-260,7,9,-11
4606,17,45,-261,7,9,-10
4607,17,46,-260,6,9,-11
4608,17,45,-261,7,9,-11
4609,17,45,-260,10,8,-12
4610,17,45,-261,9,9,-11
4611,17,46,-261,9,8,-13
4612,17,45,-261,8,9,-12
4613,17,45,-261,11,9,-13
4614,17,45,-261,10,10,-12
4615,17,45,-260,9,8,-12
4616,17,44,-261,10,10,-12
4617,16,45,-261,10,9,-12
4618,17,45,-261,11,9,-12
4619,17,44,-260,10,9,-12
4620,16,45,-261,10,9,-12
4621,16,45,-260,11,9,-13
4622,16,45,-260,10,9,-12
4623,16,45,-260,12,9,-14
4624,16,45,-260,11,9,-13
4625,17,44,-260,9,8,-13
4626,17,45,-261,9,10,-12
4627,17,45,-261,9,9,-12
4628,17,44,-260,9,9,-12
4629,17,45,-260,11,8,-11
4630,17,45,-261,9,10,-11
4631,17,45,-260,8,9,-11
4632,16,45,-260,6,9,-11
4633,17,45,-260,8,11,-11
4634,17,45,-260,7,10,-11
4635,17,45,-261,8,10,-11
4636,17,45,-260,8,9,-12
4637,16,46,-260,9,10,-12
4638,16,46,-259,9,9,-12
4639,16,46,-260,10,10,-12
4640,17,45,-261,9,10,-13
4641,16,46,-261,10,10,-12
4642,16,45,-260,10,10,-12
4643,16,46,-261,11,10,-13
4644,17,45,-261,10,11,-13
4645,16,46,-260,11,10,-13
4646,17,45,-260,11,10,-12
4647,17,46,-261,12,11,-12
4648,17,46,-261,10,10,-13
4649,17,46,-260,12,9,-13
4650,16,46,-260,12,9,-14
4651,16,46,-261,12,10,-14
4652,16,47,-260,14,9,-15
4653,17,45,-260,11,10,-15
4654,16,46,-260,14,10,-15
4655,16,46,-261,12,9,-14
4656,16,45,-261,12,10,-14
4657,16,45,-260,12,11,-14
4658,16,46,-261,14,9,-14
4659,16,46,-261,12,10,-14
4660,16,45,-261,12,9,-14
4661,16,45,-261,12,10,-13
4662,17,44,-261,12,9,-13
4663,16,45,-261,10,9,-14
4664,16,44,-262,11,10,-14
4665,17,45,-261,10,10,-14
4666,17,45,-261,12,10,-14
4667,17,45,-261,9,11,-15
4668,16,45,-261,11,11,-15
4669,16,45,-261,12,10,-15
4670,17,44,-261,11,10,-15
4671,16,45,-261,10,12,-15
4672,16,44,-260,12,10,-14
4673,16,44,-261,11,11,-13
4674,16,45,-260,11,10,-13
4675,16,44,-261,9,10,-13
4676,16,44,-260,10,10,-14
4677,17,44,-261,10,10,-14
4678,17,44,-261,9,9,-12
4679,17,44,-261,9,9,-13
4680,16,44,-260,11,10,-13
4681,17,44,-261,11,11,-13
4682,16,44,-261,10,9,-13
4683,17,44,-261,10,9,-12
4684,17,44,-261,11,9,-14
4685,17,44,-261,12,10,-12
4686,17,45,-261,10,9,-12
4687,17,44,-261,10,9,-12
4688,17,44,-261,11,9,-12
4689,16,45,-261,9,8,-12
4690,17,44,-261,10,9,-12
4691,17,44,-261,11,10,-12
4692,17,44,-260,9,9,-13
4693,16,45,-260,12,9,-12
4694,17,44,-260,11,9,-13
4695,17,44,-260,9,9,-12
4696,16,44,-260,8,10,-12
4697,17,44,-260,7,9,-12
4698,17,43,-261,9,11,-11
4699,16,44,-261,10,10,-11
4700,16,44,-261,9,10,-12
4701,16,44,-261,11,10,-12
4702,17,44,-261,10,10,-12
4703,16,44,-261,11,10,-11
4704,16,44,-260,8,10,-13
4705,17,44,-261,10,10,-11
4706,16,45,-260,8,10,-12
4707,16,45,-260,9,10,-11
4708,17,44,-261,8,11,-11
4709,16,45,-261,9,10,-12
4710,16,45,-260,8,10,-12
4711,16,45,-260,9,10,-12
4712,17,45,-260,8,11,-12
4713,17,45,-260,8,11,-12
4714,17,44,-260,12,11,-11
4715,16,44,-261,-15,10,-8
4716,15,42,-261,38,11,-5
4717,17,42,-261,29,11,0
4718,16,40,-262,1,9,-5
4719,16,42,-260,19,10,-7
4720,17,42,-261,20,11,-8
4721,18,41,-261,13,11,-10
4722,18,39,-262,8,13,-14
4723,18,42,-261,9,11,-14
4724,17,42,-261,10,11,-11
4725,17,42,-261,9,12,-13
4726,17,42,-261,10,11,-13
4727,18,42,-261,12,11,-13
4728,17,43,-260,10,13,-12
4729,18,42,-261,7,15,-11
4730,17,43,-260,9,9,-14
4731,17,42,-260,7,12,-11
4732,17,43,-261,6,13,-9
4733,17,45,-260,20,14,0
4734,18,47,-259,33,5,0
4735,17,43,-261,14,9,-9
4736,18,44,-260,19,8,-8
4737,17,44,-260,16,9,-6
4738,18,43,-261,19,9,-9
4739,17,43,-261,20,9,-9
4740,16,42,-261,29,38,-2
4741,19,43,-260,33,26,2
4742,18,41,-261,11,4,-12
4743,17,43,-261,12,9,-11
4744,17,42,-261,17,11,-7
4745,18,42,-261,19,10,-10
4746,17,42,-261,15,10,-12
4747,17,42,-260,14,10,-13
4748,17,41,-262,12,11,-13
4749,17,41,-262,11,10,-14
4750,18,41,-261,12,10,-14
4751,17,41,-261,8,10,-14
4752,17,41,-261,8,11,-13
4753,17,40,-261,7,11,-13
4754,17,42,-261,9,13,-14
4755,17,41,-261,13,11,-13
4756,17,42,-260,10,10,-13
4757,18,41,-261,4,10,-13
4758,17,42,-261,5,12,-14
4759,17,42,-261,6,10,-15
4760,18,41,-261,7,11,-13
4761,18,42,-261,5,9,-14
4762,17,42,-261,10,9,-14
4763,18,42,-260,10,10,-13
4764,19,41,-262,12,9,-14
4765,18,42,-261,10,9,-14
4766,18,42,-261,12,10,-14
4767,18,42,-261,11,9,-14
4768,18,42,-260,10,9,-14
4769,18,41,-261,11,9,-14
4770,18,41,-261,10,8,-13
4771,18,42,-261,11,8,-13
4772,18,41,-261,10,9,-13
4773,17,42,-260,9,9,-13
4774,17,42,-261,8,9,-13
4775,18,42,-261,6,8,-14
4776,18,42,-262,9,9,-13
4777,17,42,-261,9,10,-13
4778,17,42,-262,12,10,-13
4779,17,43,-260,15,10,-13
4780,17,42,-261,15,10,-14
4781,17,42,-260,16,10,-12
4782,17,42,-261,19,10,-14
4783,17,41,-260,17,10,-14
4784,17,41,-261,11,10,-13
4785,17,40,-261,19,10,-12
4786,17,41,-261,24,8,-13
4787,17,40,-261,12,10,-14
4788,16,41,-261,13,10,-12
4789,17,40,-261,12,11,-13
4790,16,40,-261,16,9,-13
4791,17,40,-261,13,10,-13
4792,17,39,-261,16,9,-13
4793,17,40,-260,15,9,-13
4794,17,40,-261,16,9,-13
4795,16,40,-261,12,10,-12
4796,17,39,-261,13,10,-13
4797,18,39,-262,13,10,-13
4798,17,39,-261,15,9,-13
4799,17,39,-262,12,9,-13
4800,17,39,-262,13,8,-14
4801,18,38,-262,12,8,-14
4802,17,38,-262,13,9,-13
4803,17,39,-262,14,8,-13
4804,17,38,-261,12,8,-13
4805,17,38,-262,13,7,-14
4806,17,38,-262,12,8,-12
4807,17,38,-262,14,7,-13
4808,17,38,-262,12,9,-12
4809,17,38,-263,13,7,-12
4810,16,39,-262,13,8,-12
4811,17,38,-262,14,8,-12
4812,17,38,-263,12,8,-12
4813,16,39,-262,11,8,-11
4814,16,39,-262,12,8,-12
4815,17,38,-262,12,9,-12
4816,17,38,-262,10,8,-12
4817,16,39,-262,11,9,-12
4818,16,39,-261,11,8,-12
4819,17,37,-262,8,9,-12
4820,17,38,-262,10,9,-11
4821,16,38,-262,10,10,-12
4822,17,38,-262,10,9,-12
4823,17,38,-262,9,9,-12
4824,17,37,-262,9,10,-12
4825,16,38,-261,9,9,-12
4826,17,37,-263,9,9,-12
4827,16,38,-262,10,9,-12
4828,17,37,-263,10,10,-13
4829,16,38,-262,11,10,-12
4830,17,38,-262,14,9,-13
4831,17,37,-263,11,10,-11
4832,17,38,-262,11,9,-12
4833,17,37,-262,12,9,-12
4834,18,37,-263,11,9,-12
4835,17,38,-261,11,9,-12
4836,17,38,-262,13,9,-12
4837,17,37,-262,11,9,-12
4838,17,37,-263,13,10,-13
4839,17,38,-262,11,9,-12
4840,17,38,-262,10,9,-13
4841,17,37,-262,10,10,-12
4842,17,37,-262,11,10,-12
4843,17,37,-262,11,11,-12
4844,17,37,-262,11,10,-12
4845,16,37,-262,10,12,-12
4846,17,37,-262,10,11,-12
4847,17,37,-262,7,11,-13
4848,17,37,-262,7,11,-14
4849,16,37,-262,9,11,-13
4850,17,37,-262,9,12,-12
4851,16,38,-261,9,11,-13
4852,16,37,-261,6,11,-12
4853,16,37,-262,8,11,-12
4854,16,38,-261,6,11,-12
4855,17,38,-261,7,10,-13
4856,16,38,-261,7,10,-11
4857,16,38,-261,4,11,-12
4858,16,38,-262,-2,11,-13
4859,16,39,-261,-6,11,-14
4860,16,39,-261,-6,9,-13
4861,16,40,-262,0,10,-13
4862,16,39,-262,-2,14,-11
4863,16,40,-261,3,12,-13
